"Time (s)","Gyroscope x (rad/s)","Gyroscope y (rad/s)","Gyroscope z (rad/s)"
1.565890000E-3,1.227075532E-1,1.546252668E-1,2.290744742E-4
1.015388900E-1,-5.688682571E-2,6.238461286E-2,-2.237293869E-2
2.015658900E-1,-2.390010282E-2,2.451096848E-2,3.894265974E-3
3.015688900E-1,2.069306001E-2,-1.641700417E-2,1.427897532E-2
4.015775560E-1,-1.534798928E-2,-9.697485715E-3,1.427897532E-2
5.015775560E-1,3.588833380E-3,-1.091921609E-2,2.290744742E-4
6.015789560E-1,1.458440814E-2,3.130684374E-3,1.305724494E-2
7.015789560E-1,-2.328923717E-2,-2.741257846E-2,8.170322515E-3
8.015828130E-1,-6.872233935E-4,1.046106778E-2,1.672243699E-2
9.015828130E-1,2.496911772E-2,2.084577642E-2,6.337726954E-3
1.001585813E0,6.032294128E-3,6.872233935E-4,-3.436116967E-3
1.103247961E0,9.697485715E-3,-4.199698567E-3,-7.712173741E-3
1.203250415E0,4.199698567E-3,1.351539325E-2,-9.544769302E-3
1.303250498E0,6.772968173E-2,2.817615867E-2,2.710714564E-2
1.403252498E0,-6.872233935E-4,-9.086620063E-3,6.337726954E-3
1.503252855E0,-2.695442922E-2,-8.475755341E-3,1.244637929E-2
1.603253255E0,-2.939788997E-2,2.695442922E-2,1.427897532E-2
1.703253317E0,6.643159315E-3,1.290452853E-2,2.466368489E-2
1.803254905E0,5.421428941E-3,3.123048507E-2,5.115996581E-3
1.903254905E0,-1.351539325E-2,8.628471754E-3,7.559457328E-3
2.003256326E0,-9.850202128E-3,-2.069306001E-2,1.061378326E-2
2.103256326E0,2.985603921E-2,-5.345070967E-4,-3.436116967E-3
2.203257611E0,5.421428941E-3,-6.643159315E-3,-1.443169173E-2
2.303257611E0,-2.573269792E-2,-1.145372284E-3,-1.259909570E-2
2.403258741E0,-9.850202128E-3,-5.345070967E-4,6.948592141E-3
2.503258741E0,-1.473712362E-2,-1.275181212E-2,8.781188168E-3
2.603258981E0,-1.595885493E-2,-9.697485715E-3,7.559457328E-3
2.703258981E0,1.091921609E-2,-3.168863431E-2,3.199406713E-2
2.803259981E0,3.901901841E-2,1.168279815E-2,5.726861767E-3
2.903260088E0,-8.628471754E-3,-1.519527286E-2,1.450804994E-3
3.003261019E0,3.588833380E-3,-1.641700417E-2,2.290744742E-4
3.103261019E0,-2.023491077E-2,-2.977967961E-3,-9.544769302E-3
3.203261019E0,-3.123048507E-2,-1.091921609E-2,-7.712173741E-3
3.303260819E0,2.496911772E-2,2.084577642E-2,2.290744742E-4
3.403260819E0,3.291036561E-2,1.901318133E-2,-5.268712528E-3
3.503260819E0,-9.239336476E-3,2.267837152E-2,-1.076649968E-2
3.603260785E0,2.069306001E-2,1.656972058E-2,1.183551457E-2
3.703141651E0,4.207334295E-2,2.390010282E-2,1.366810966E-2
3.803141651E0,1.458440814E-2,-1.824959926E-2,-1.320996135E-2
3.903141784E0,4.199698567E-3,-4.199698567E-3,-1.015563495E-2
4.003141784E0,-5.566509441E-2,-2.985603921E-2,8.781188168E-3
4.103141784E0,-3.550654277E-2,-1.275181212E-2,1.305724494E-2
4.203141784E0,-2.023491077E-2,-6.032294128E-3,1.450804994E-3
4.303141750E0,2.435825206E-2,-1.214094646E-2,-1.603521290E-3
4.403141750E0,-1.229366288E-2,-2.977967961E-3,-5.879578181E-3
4.503141583E0,-6.185010541E-3,-1.756237587E-3,-6.490443368E-3
4.603141349E0,3.107776865E-2,-4.810563754E-3,8.399396902E-4
4.703141315E0,-1.046106778E-2,-1.275181212E-2,1.244637929E-2
4.803141315E0,-6.872233935E-4,-1.641700417E-2,7.559457328E-3
4.903141315E0,1.397354249E-2,-4.199698567E-3,1.794416644E-2
5.003141315E0,-1.046106778E-2,-1.458440814E-2,-2.825251780E-3
5.103141415E0,7.864889689E-3,1.908953884E-3,4.505131394E-3
5.203141415E0,1.580613852E-2,-2.367102774E-3,-4.046982154E-3
5.303141448E0,1.153008174E-2,-4.199698567E-3,-1.198823005E-2
5.403141448E0,1.275181212E-2,-4.810563754E-3,3.283400787E-3
5.503141448E0,2.977967961E-3,-4.199698567E-3,-1.015563495E-2
5.603141214E0,-3.367394581E-2,-1.519527286E-2,8.399396902E-4
5.703141214E0,1.763873361E-2,7.635815564E-5,2.290744742E-4
5.803141214E0,-2.519819187E-3,-7.254024968E-3,7.559457328E-3
5.903141214E0,4.451680556E-2,2.328923717E-2,1.305724494E-2
6.003141214E0,1.030835137E-2,6.795875728E-3,1.488984004E-2
6.103141214E0,-2.519819187E-3,4.963280167E-3,8.170322515E-3
6.203141214E0,3.596469015E-2,-4.810563754E-3,-1.015563495E-2
6.303141214E0,-2.519819187E-3,1.046106778E-2,-1.076649968E-2
6.403141214E0,4.199698567E-3,-1.145372284E-3,2.290744742E-4
6.503141214E0,-6.872233935E-4,-1.030835137E-2,7.559457328E-3
6.603141214E0,-1.534798928E-2,-4.199698567E-3,2.061670180E-3
6.703141214E0,-2.519819187E-3,7.635815564E-5,-4.046982154E-3
6.803141214E0,-2.084577642E-2,2.451096848E-2,3.283400787E-3
6.903141080E0,-1.107193250E-2,-8.475755341E-3,-1.748601720E-2
7.003141080E0,2.977967961E-3,4.352414981E-3,-8.933904581E-3
7.103141080E0,9.086620063E-3,-8.475755341E-3,-2.214386594E-3
7.203141080E0,1.091921609E-2,9.239336476E-3,1.122464892E-2
7.303141080E0,8.475755341E-3,-2.367102774E-3,1.672243699E-2
7.403141080E0,1.702786796E-2,-7.254024968E-3,2.099849284E-2
7.503141080E0,1.030835137E-2,7.635815564E-5,2.672535367E-3
7.603141313E0,1.886046492E-2,1.298088697E-3,8.170322515E-3
7.703141313E0,9.697485715E-3,-1.756237587E-3,2.672535367E-3
7.803141313E0,-1.473712362E-2,-1.641700417E-2,1.122464892E-2
7.903141313E0,2.496911772E-2,4.963280167E-3,6.337726954E-3
8.003141313E0,-4.963280167E-3,-1.756237587E-3,8.399396902E-4
8.103141213E0,1.153008174E-2,-3.588833380E-3,2.290744742E-4
8.203141213E0,5.421428941E-3,-1.145372284E-3,4.505131394E-3
8.303141179E0,-3.741549561E-3,-3.168863431E-2,2.290744742E-4
8.403141179E0,1.763873361E-2,-9.086620063E-3,-1.626428775E-2
8.503141212E0,1.214094646E-2,2.817615867E-2,-1.137736533E-2
8.603141845E0,7.254024968E-3,1.351539325E-2,-3.436116967E-3
8.703141845E0,5.345070967E-4,8.017606102E-3,-9.926559869E-4
8.803141845E0,3.168863431E-2,8.017606102E-3,-3.817907709E-4
8.903141745E0,1.641700417E-2,-9.697485715E-3,5.726861767E-3
9.003141745E0,3.588833380E-3,9.239336476E-3,2.672535367E-3
9.103141745E0,-6.872233935E-4,-5.345070967E-4,-3.817907709E-4
9.203141745E0,-7.635815564E-5,-1.145372284E-3,-2.214386594E-3
9.303141745E0,2.367102774E-3,-5.345070967E-4,1.122464892E-2
9.403141745E0,1.030835137E-2,2.519819187E-3,2.290744742E-4
9.503141745E0,-1.351539325E-2,-2.680171281E-2,-5.268712528E-3
9.603141745E0,2.008219436E-2,-1.336267684E-2,-4.046982154E-3
9.703141745E0,2.069306001E-2,4.352414981E-3,-2.825251780E-3
9.803141745E0,1.275181212E-2,-1.275181212E-2,-1.259909570E-2
9.903141778E0,-2.519819187E-3,-1.145372284E-3,-2.115120925E-2
1.000314178E1,-1.840231568E-2,-7.864889689E-3,-1.015563495E-2
1.010314178E1,-3.130684374E-3,5.574145354E-3,-8.933904581E-3
1.020314178E1,7.864889689E-3,4.963280167E-3,-4.657847341E-3
1.030314178E1,-1.901318133E-2,3.611740842E-2,-8.345946670E-2
1.040314178E1,-7.154759020E-2,7.521278411E-2,-1.207222417E-1
1.050314178E1,1.709659100E-1,-5.978843570E-2,-8.712465316E-2
1.060314178E1,-2.987894714E-1,4.222606122E-2,-4.375322163E-2
1.070314184E1,-6.971499324E-2,-9.338602424E-2,1.932624876E-1
1.080314184E1,-3.672827408E-2,-1.104902476E-1,-1.366047412E-1
1.090314198E1,-1.863902509E-1,-7.139487565E-2,-1.610393524E-1
1.100314198E1,-2.987894714E-1,2.493093759E-1,-1.097266674E-1
1.110314198E1,-2.041053474E-1,2.651918828E-1,4.482223839E-2
1.120314198E1,7.225772142E-1,6.714172363E-1,6.550766230E-1
1.130314284E1,-3.501021564E-1,2.328923717E-2,1.114065498E-1
1.140314284E1,1.117119789E-1,7.728208899E-1,5.860488415E-1
1.150314281E1,3.548363447E-1,-3.743840456E-1,1.278999150E-1
1.160314244E1,-3.415500224E-1,1.027017161E-1,2.099849284E-2
1.170314244E1,-2.749657333E-1,-3.334560692E-1,-3.223077655E-1
1.180314244E1,-4.264602959E-1,-4.207334295E-2,-2.123520374E-1
1.190314251E1,1.844049394E-1,1.906663179E-1,2.806162238E-1
1.200314251E1,4.232532680E-1,-8.972083032E-2,1.498910636E-1
1.210314251E1,7.903832793E-1,2.920699418E-1,4.559345543E-1
1.220310917E1,2.435825206E-2,5.383250117E-2,1.633300930E-1
1.230307584E1,-7.673230767E-1,3.391065598E-1,-3.687335253E-1
1.240304251E1,1.648572534E-1,-1.734093726E-1,1.242347211E-1
1.250300924E1,6.039930135E-2,2.390010282E-2,-3.119230568E-1
1.260297594E1,3.046690486E-2,-3.609450161E-1,-2.587777972E-1
1.270294260E1,9.766208380E-2,2.871830165E-1,-3.314707577E-1
1.280290927E1,-4.380667508E-1,1.161407530E-1,-1.078940704E-1
1.290287600E1,-9.842566401E-2,3.067307174E-1,1.016327068E-1
1.300284267E1,4.067598879E-1,5.322163552E-2,2.256383449E-1
1.310280934E1,5.778021812E-1,7.643451542E-2,1.669952869E-1
1.320277600E1,-6.543894112E-2,3.299435973E-1,-7.429648191E-2
1.330274280E1,-5.339725614E-1,-5.856670439E-2,-4.463134110E-1
1.340270947E1,-6.795875728E-3,-2.137264758E-1,8.170322515E-3
1.350267613E1,1.636355221E-1,-2.173916698E-1,-7.307475805E-2
1.360264280E1,9.697485715E-3,-4.110359550E-1,-2.025781870E-1
1.370200210E1,-4.337906837E-1,1.857793927E-1,-5.043455958E-1
1.380196877E1,-1.375210434E-1,2.370920777E-1,-5.108360574E-2
1.390193534E1,4.573853686E-2,-4.696026444E-2,3.199406713E-2
1.400190200E1,2.070069611E-1,-1.911244690E-1,-2.237293869E-2
1.410186867E1,2.235003263E-1,6.788240373E-2,1.611157134E-2
1.420183534E1,-2.193769813E-1,6.848562956E-1,4.726569727E-2
1.430180117E1,-5.193118453E-1,1.601230502E-1,-2.123520374E-1
1.440176783E1,7.506006956E-2,-2.070069611E-1,1.779908538E-1
1.450170123E1,1.178206354E-1,2.756529488E-2,1.977676153E-2
1.460163457E1,1.428661048E-1,-3.291036561E-2,-1.048397496E-1
1.470156790E1,-2.096031308E-1,3.916409910E-1,-2.019673288E-1
1.480150123E1,-4.521166384E-1,3.714824319E-1,-1.323286891E-1
1.490143450E1,-7.521278411E-2,1.595121920E-1,1.407280862E-1
1.500136783E1,2.069306001E-2,4.772384837E-2,-8.468119800E-2
1.510130116E1,2.186134011E-1,-7.689265907E-2,2.244166136E-1
1.520126783E1,1.764636934E-1,2.706896663E-1,-3.817907709E-4
1.530123453E1,-5.877287388E-1,-7.628180087E-2,-2.092977017E-1
1.540120120E1,-2.737439871E-1,-2.367102774E-3,1.107956842E-1
1.550116790E1,-1.973858327E-1,5.749769136E-2,-6.207918003E-2
1.560113456E1,1.702786796E-2,-1.508073509E-1,5.826127157E-2
1.570110123E1,4.232532680E-1,-1.752419621E-1,-1.989129931E-1
1.580106790E1,-9.957867265E-1,3.934735656E-1,-2.557234764E-1
1.590103446E1,-6.695846915E-1,3.238349259E-1,1.266781837E-1
1.600100113E1,-1.894445866E-1,5.022075772E-1,1.794416644E-2
1.610096779E1,4.391357601E-1,5.187009573E-1,2.696206570E-1
1.620093446E1,2.839759886E-1,-8.475755341E-3,2.696206570E-1
1.630090099E1,-5.193118453E-1,-4.263075888E-1,-2.373975068E-1
1.640086769E1,-7.948884368E-2,-4.024074972E-2,-5.230533704E-2
1.650083436E1,3.756057620E-1,-9.277515858E-2,1.682170182E-1
1.660080106E1,3.175735772E-1,-3.352886736E-1,-1.757001132E-1
1.670076772E1,-4.765512347E-1,-4.568508565E-1,-5.067890882E-1
1.680073439E1,-1.955532432E-1,6.666067243E-2,-1.341612786E-1
1.690070102E1,-1.326341182E-1,-1.763873361E-2,-1.023962870E-1
1.700066769E1,1.135445759E-1,-3.588833380E-3,6.498079002E-2
1.710063436E1,3.212387562E-1,1.918880492E-1,1.804343164E-1
1.720060099E1,-2.590832114E-1,2.016618848E-1,-3.009274900E-1
1.730056762E1,-2.303725630E-1,8.620835841E-2,-2.105194330E-1
1.740053432E1,1.569160074E-1,-1.294270754E-1,3.443752974E-2
1.750053425E1,7.628180087E-2,-3.701079786E-1,-1.549306959E-1
1.760053425E1,4.268420860E-2,-3.316234648E-1,-1.537089646E-1
1.770053425E1,-2.016618848E-1,-1.145372284E-3,-3.259729743E-1
1.780053425E1,-2.792417705E-1,-1.581377387E-1,-2.209041417E-1
1.790053425E1,1.763873361E-2,4.963280167E-3,1.183551457E-2
1.800053425E1,3.639993370E-1,-1.404226422E-1,-7.124216110E-2
1.810053425E1,1.037707329E-1,-1.263727546E-1,-1.879174262E-1
1.820053422E1,-9.476047009E-2,4.649448097E-1,1.608866304E-1
1.830053419E1,-3.232240677E-1,2.260964960E-1,-7.063129544E-2
1.840053422E1,-7.276932150E-2,1.088103727E-1,-5.047274008E-2
1.850053412E1,4.329507425E-2,2.451096848E-2,1.590540409E-1
1.860053412E1,2.680934966E-1,-1.471421719E-1,2.848922908E-1
1.870053408E1,2.247220576E-1,-9.827294946E-2,8.330674469E-2
1.880053409E1,-6.427065730E-1,5.101488233E-1,-5.293911099E-1
1.890053408E1,-2.322051525E-1,3.213914633E-1,-2.386192381E-1
1.900053408E1,8.475755341E-3,3.623194396E-1,-3.214678168E-2
1.910053408E1,1.630246639E-1,-3.657555580E-2,7.597636431E-2
1.920053408E1,2.845868468E-1,-2.252565511E-2,3.771329224E-1
1.930053409E1,-4.539492428E-1,-8.544477820E-2,-3.797291219E-1
1.940053408E1,-2.157117873E-1,-2.985603921E-2,-4.497495294E-2
1.950053408E1,-5.566509441E-2,-1.239292845E-1,9.002626687E-2
1.960053408E1,-2.700788081E-1,1.674534380E-1,-9.445504099E-2
1.970053408E1,-2.053270787E-1,-6.101016700E-2,5.887213722E-2
1.980053409E1,-3.623194396E-1,-1.575268805E-1,-2.013564557E-1
1.990053408E1,-1.558469981E-1,-1.385900527E-1,-5.902485549E-2
2.000053408E1,1.648572534E-1,-2.332741618E-1,1.089630872E-1
2.010053408E1,4.641812146E-1,1.827250719E-1,3.893502355E-1
2.020053412E1,3.023019433E-1,7.514405847E-1,6.654613018E-1
2.030053412E1,-2.829069793E-1,-3.652210534E-1,6.375905871E-2
2.040053412E1,-2.315942794E-1,-6.643159315E-3,-8.651378751E-2
2.050053432E1,2.949715555E-1,-2.546544373E-1,2.427425832E-1
2.060053432E1,3.181844354E-1,-1.605812013E-1,1.061378326E-2
2.070053432E1,2.442697436E-1,1.955532432E-1,-1.137736533E-2
2.080053432E1,2.367102774E-3,-5.460371971E-1,4.595997334E-1
2.090053432E1,-2.303725630E-1,3.366630971E-1,-1.873065531E-1
2.100053432E1,1.214094646E-2,1.338558495E-1,-2.826015353E-1
2.110053432E1,2.436588705E-1,7.521278411E-2,2.531272769E-1
2.120077360E1,-1.840231568E-2,6.518695951E-1,3.899610937E-1
2.130077360E1,4.116468132E-1,1.381319016E-1,5.243514776E-1
2.140077360E1,7.689265907E-2,2.004401535E-1,1.169043332E-1
2.150077360E1,3.102431893E-1,-3.389538527E-1,3.337614834E-1
2.160077360E1,2.283872366E-1,1.582904607E-1,-8.162686974E-2
2.170077363E1,1.746311039E-1,3.091741800E-1,-6.085744873E-2
2.180077363E1,1.007164046E-1,-3.132975101E-1,1.395063549E-1
2.190077363E1,-4.484514594E-1,9.781479836E-2,-4.420373738E-1
2.200077363E1,-4.963280167E-3,2.126574665E-1,-3.650683463E-1
2.210077363E1,4.837289155E-1,3.152828217E-1,-1.359938681E-1
2.220077363E1,1.611920595E-1,1.619556546E-1,1.950950921E-1
2.230077363E1,-3.000875562E-2,2.695442922E-2,1.950950921E-1
2.240077363E1,-4.533383846E-1,1.870011240E-1,-4.497495294E-2
2.250077363E1,1.856266707E-1,-7.078400999E-2,2.433534414E-1
2.260077363E1,3.450624943E-1,-2.204459906E-1,3.627012298E-2
2.270077363E1,3.340669274E-1,-6.284276396E-2,1.733330078E-2
2.280077363E1,1.013272703E-1,4.833471403E-2,5.032002553E-2
2.290077363E1,-4.692208767E-1,2.645809948E-1,-2.257910669E-1
2.300077363E1,-4.352414981E-3,1.405753642E-1,8.636107296E-2
2.310077363E1,1.709659100E-1,3.428481147E-2,2.219731659E-1
2.320077363E1,3.340669274E-1,4.405865446E-2,3.447570801E-1
2.330077377E1,-1.534035355E-1,3.262783885E-1,1.553888470E-1
2.340077373E1,-6.689738035E-1,1.894445866E-1,-8.101600409E-2
2.350077366E1,6.101016700E-2,3.428481147E-2,9.796751291E-2
2.360077367E1,1.318705380E-1,1.063669100E-1,-1.158353239E-1
2.370056444E1,-4.650211707E-2,1.039234474E-1,-1.891391575E-1
2.380056444E1,1.954005212E-1,-8.544477820E-2,7.658722997E-2
2.390056444E1,-5.358051658E-1,2.627484202E-1,-2.716059685E-1
2.400056444E1,1.379791945E-1,-7.444920391E-2,2.048689276E-1
2.410056444E1,7.444920391E-2,-1.868484020E-1,-1.396590620E-1
2.420056448E1,5.277112126E-1,1.100321040E-1,2.244166136E-1
2.430056448E1,-9.659306705E-2,2.529745698E-1,-2.447278947E-1
2.440056448E1,-4.099669456E-1,2.499202490E-1,-5.597052723E-2
2.450056454E1,1.282053441E-1,-1.520290822E-1,1.297325045E-1
2.460056454E1,4.489096105E-1,-2.557998151E-2,6.864598393E-2
2.470056454E1,3.939317167E-1,2.041053474E-1,-1.396590620E-1
2.480056454E1,1.080467924E-1,3.299435973E-1,5.520694703E-2
2.490056454E1,-5.345834494E-1,4.411210716E-1,-1.647045463E-1
2.500056454E1,-1.168279815E-2,2.695442922E-2,2.160935849E-2
2.510056454E1,1.471421719E-1,-1.330922693E-1,-4.008803144E-2
2.520056451E1,-1.882228553E-1,2.596940994E-1,-1.983021349E-1
2.530056451E1,1.825723499E-1,-1.824959926E-2,4.473824203E-1
2.540056451E1,-2.425898612E-1,4.405865446E-2,3.514765799E-1
2.550056451E1,3.718642145E-2,-6.223189831E-2,2.244166136E-1
2.560056451E1,2.381610870E-1,-7.170794606E-1,-8.529205620E-2
2.570056448E1,5.917757004E-2,6.360634416E-2,-5.413793400E-2
2.580056448E1,8.177958429E-2,3.635411859E-1,-1.066723466E-1
2.590056448E1,-2.340377420E-1,-3.481168449E-1,-2.691625059E-1
2.600056448E1,3.901901841E-2,8.071056753E-2,5.703954399E-2
2.610056448E1,3.664427996E-1,1.778381467E-1,4.505131394E-3
2.620056448E1,3.462842405E-1,4.894557595E-2,3.077233583E-2
2.630056434E1,-2.419789881E-1,1.808924675E-1,-2.331214547E-1
2.640056437E1,-1.161407530E-1,-9.338602424E-2,-8.895725012E-2
2.650056424E1,-8.628471754E-3,-2.583196461E-1,5.032002553E-2
2.660056424E1,2.662608922E-1,-3.798818290E-1,2.344195358E-2
2.670056511E1,2.063960880E-1,-9.705121815E-2,-2.447278947E-1
2.680056511E1,-2.816852331E-1,7.874816656E-1,-7.230353951E-1
2.690056511E1,-2.444224507E-1,1.949423701E-1,-2.337323129E-1
2.700056511E1,-7.154759020E-2,-5.612324551E-2,-4.192062840E-2
2.710056511E1,3.304017484E-1,-2.021200359E-1,-9.384417534E-2
2.720056507E1,3.756057620E-1,-1.245401502E-1,-1.109483987E-1
2.730056507E1,-9.537133574E-2,3.311653137E-1,-1.457677186E-1
2.740056507E1,-4.960989356E-1,-7.933612168E-2,-1.946369410E-1
2.750056514E1,1.349248588E-1,-3.468950987E-1,5.261840224E-1
2.760056514E1,2.876411676E-1,-3.334560692E-1,-7.368562371E-2
2.770056514E1,1.398117840E-1,-4.104250968E-1,-1.427133977E-1
2.780056514E1,1.343140006E-1,3.085633218E-1,-7.918340713E-2
2.790056514E1,-4.539492428E-1,2.175443918E-1,-3.962224722E-1
2.800056514E1,-1.527926624E-1,4.772384837E-2,-1.164461896E-1
2.810056514E1,8.055785298E-2,2.102140039E-1,2.099849284E-2
2.820056514E1,5.551237985E-2,2.291508317E-1,1.046870351E-1
2.830056514E1,-3.184135258E-2,-2.870303094E-1,3.077233583E-2
2.840056514E1,7.078400999E-2,-5.826891065E-1,9.918924421E-2
2.850056514E1,3.487277031E-1,-4.855615199E-1,9.491318464E-2
2.860056517E1,2.344958931E-1,-5.612324551E-2,1.370628923E-1
2.870056524E1,-1.595885493E-2,-4.634939879E-2,-2.642755806E-1
2.880056524E1,-2.658027411E-1,6.910412759E-2,-4.432590902E-1
2.890056524E1,-4.906011522E-1,3.733150363E-1,-2.441170216E-1
2.900056524E1,-3.299435973E-1,3.910301030E-1,-1.555415690E-1
2.910056537E1,1.844049394E-1,2.603049576E-1,1.450804994E-3
2.920056537E1,2.913063765E-1,2.529745698E-1,7.719809562E-2
2.930056534E1,-2.401463985E-1,-1.129337102E-1,-2.264019251E-1
2.940056534E1,-3.299435973E-1,-2.870303094E-1,3.871358559E-2
2.950056534E1,-7.276932150E-2,1.387427747E-1,1.712713391E-1
2.960056534E1,2.931389511E-1,2.939788997E-2,2.213622928E-1
2.970056460E1,-1.992184222E-1,1.155298874E-1,-2.282345295E-1
2.980056460E1,-5.266422033E-1,-6.772968173E-2,-6.369034052E-1
2.990056460E1,-1.894445866E-1,1.949423701E-1,-1.561524272E-1
3.000056460E1,-4.833471403E-2,-6.467536092E-2,-7.612907887E-2
3.010056547E1,-2.145664208E-2,-5.306891724E-2,-2.502256632E-1
3.020056547E1,1.947896481E-1,3.122285008E-1,-2.115120925E-2
3.030056547E1,-2.047162205E-1,-1.581377387E-1,-1.488220394E-1
3.040056547E1,-3.763693571E-1,-3.053562641E-1,1.608866304E-1
3.050056533E1,-2.315942794E-1,-8.666650951E-2,2.024254650E-1
3.060056533E1,4.818963110E-1,-5.668066144E-1,1.305724494E-2
3.070056533E1,3.939317167E-1,-2.516001165E-1,-3.520110995E-2
3.080056533E1,-3.501021564E-1,-4.519639313E-1,-3.015383482E-1
3.090056533E1,-3.739258945E-1,8.193229884E-2,-2.728276849E-1
3.100056533E1,-1.338558495E-1,6.055201590E-2,-2.001347244E-1
3.110056533E1,2.998584807E-1,-1.642463952E-1,-3.581197560E-2
3.120056533E1,3.786600828E-1,4.589125142E-2,1.120174155E-1
3.130056533E1,-3.073415756E-1,-5.136613250E-1,-1.805870384E-1
3.140056533E1,-3.384957016E-1,-4.812854528E-1,-8.956811577E-2
3.150056533E1,-3.555999398E-1,-1.734093726E-1,-1.213331074E-1
3.160056553E1,3.951534629E-1,-2.980258763E-1,1.187369302E-1
3.170056550E1,4.696790278E-1,9.598220140E-2,-9.995282441E-2
3.180056550E1,-7.582364976E-2,-6.535494328E-1,-1.811978966E-1
3.190056550E1,-5.663484335E-1,-7.964919209E-1,-3.858377635E-1
3.200056550E1,5.612324551E-2,-3.346777856E-1,-7.063129544E-2
3.210056557E1,2.974150181E-1,-9.521862119E-2,-7.429648191E-2
3.220056557E1,2.039526403E-1,1.265254617E-1,-5.879578181E-3
3.230056567E1,-9.781479836E-2,3.123048507E-2,1.663844138E-1
3.240056563E1,-3.311653137E-1,-4.507421851E-1,-1.320996135E-2
3.250056563E1,-1.901318133E-2,4.833471403E-2,2.067015320E-1
3.260056563E1,5.118287206E-1,-1.337031275E-1,3.093268871E-1
3.270056550E1,2.827542424E-1,-1.123228446E-1,-1.341612786E-1
3.280056550E1,-3.983604908E-1,-2.363284975E-1,-4.292092025E-1
3.290056550E1,-3.195588887E-1,-1.324813962E-1,-1.414916664E-1
3.300056550E1,-2.755765915E-1,3.184135258E-2,-1.879174262E-1
3.310056496E1,1.416443735E-1,-2.424371392E-1,-2.288453877E-1
3.320056500E1,4.916701615E-1,-1.294270754E-1,1.285107732E-1
3.330056500E1,7.383833826E-2,3.690389693E-1,5.164102316E-1
3.340056500E1,-3.165045679E-1,-3.951534629E-1,2.696206570E-1
3.350056500E1,-4.252385795E-1,-6.589708477E-2,-4.359287024E-1
3.360056500E1,2.668717504E-1,-1.373683214E-1,-7.712173741E-3
3.370045244E1,1.880701333E-1,-1.434769779E-1,-1.903608888E-1
3.380045244E1,3.365103900E-1,-2.479349375E-1,-1.567633003E-1
3.390045244E1,-1.735620946E-1,-4.482987225E-1,-1.237765700E-1
3.400045244E1,-3.024546504E-1,5.261076987E-2,-4.497495294E-2
3.410045244E1,3.334560692E-1,-5.551237985E-2,1.285107732E-1
3.420045247E1,2.955824137E-1,-5.123632401E-2,-7.979427278E-2
3.430045247E1,1.214094646E-2,5.895613432E-1,2.201405615E-1
3.440045247E1,-2.346486151E-1,-5.826891065E-1,2.732858360E-1
3.450045247E1,-3.183371425E-1,2.627484202E-1,1.981494129E-1
3.460045224E1,3.786600828E-1,-2.253329158E-1,7.719809562E-2
3.470045224E1,3.029128015E-1,9.537133574E-2,-2.481640130E-2
3.480045224E1,-2.486985177E-1,1.351539325E-2,-1.347721517E-1
3.490045224E1,-4.954880774E-1,3.245221451E-2,-2.850449979E-1
3.500045224E1,5.795583874E-2,-5.228242874E-1,-7.368562371E-2
3.510045214E1,4.159228802E-1,-1.239292845E-1,-4.986187443E-2
3.520045214E1,3.982077837E-1,-3.962988406E-2,-6.513350457E-2
3.530045207E1,3.047454059E-1,3.134502172E-1,2.671771944E-1
3.540045207E1,-1.454622895E-1,3.360522389E-1,4.003458023E-1
3.550045207E1,-4.215733707E-1,2.572506368E-1,-1.353830099E-1
3.560045204E1,2.809216678E-1,1.417970955E-1,3.972914815E-1
3.570045204E1,3.084105849E-1,-8.666650951E-2,-8.773551881E-2
3.580045204E1,2.485457957E-1,-5.245805159E-2,8.575020730E-2
3.590045204E1,-7.521278411E-2,4.368450046E-1,5.154175684E-2
3.600041870E1,-2.902373374E-1,2.181552500E-1,-2.490039468E-1
3.610038504E1,1.098793894E-1,3.207806051E-1,1.550070569E-2
3.620035167E1,3.261256814E-1,2.939788997E-2,8.697193861E-2
3.630031833E1,2.674826086E-1,6.727153808E-2,2.054798007E-1
3.640028497E1,-4.386776090E-1,-3.212387562E-1,-7.063129544E-2
3.650025163E1,-1.747838110E-1,-4.751768112E-1,1.052978933E-1
3.660021830E1,8.361218125E-2,3.917173296E-2,2.616794109E-1
3.670018497E1,3.615558743E-1,-3.779728711E-2,6.986771524E-2
3.680015163E1,1.068250611E-1,-1.947133057E-2,-1.433242559E-1
3.690011830E1,-2.908482254E-1,1.430188268E-1,-9.017898142E-2
3.700008496E1,-1.430188268E-1,4.545601010E-1,4.237877578E-2
3.710005163E1,1.813506186E-1,3.201697469E-1,-1.243874356E-1
3.720001830E1,3.743840456E-1,1.173624843E-1,7.170030475E-2
3.729998496E1,7.017314434E-2,5.950590968E-1,1.089630872E-1
3.739995163E1,-1.375210434E-1,2.322051525E-1,1.822669208E-1
3.749991829E1,-7.153995633E-1,2.841286957E-1,-1.677588671E-1
3.759988496E1,2.924517356E-2,-4.757113010E-2,2.543490231E-1
3.769985162E1,1.184315011E-1,-1.824959926E-2,-3.703370690E-2
3.779981829E1,-6.360634416E-2,-1.538616866E-1,-2.135737687E-1
3.789978496E1,6.711881608E-2,2.322051525E-1,-2.603813075E-2
3.799975162E1,-2.151009291E-1,2.047162205E-1,-8.956811577E-2
3.809971819E1,-1.448514163E-1,2.444224507E-1,-4.046982154E-3
3.819968486E1,7.444920391E-2,1.595885493E-2,-3.817907709E-4
3.829965152E1,1.330922693E-1,2.267073691E-1,1.089630872E-1
3.839961822E1,-1.815033406E-1,8.498662710E-2,-1.891391575E-1
3.849958489E1,-3.678172231E-1,-5.490151420E-2,-1.714240611E-1
3.859955159E1,-1.344667077E-1,-5.856670439E-2,3.382666409E-2
3.869951825E1,2.546544373E-1,-7.689265907E-2,-4.069889709E-2
3.879948492E1,1.037707329E-1,2.084577642E-2,-6.330090761E-2
3.889945158E1,-9.598220140E-2,3.250566721E-1,-1.665371358E-1
3.899945158E1,-3.910301030E-1,2.865721583E-1,1.611157134E-2
3.909945155E1,-7.826711237E-2,1.979966909E-1,1.193477958E-1
3.919945155E1,7.200574130E-2,3.130684374E-3,2.344195358E-2
3.929945155E1,-1.558469981E-1,1.259146035E-1,-1.439351290E-1
3.939945158E1,-2.419789881E-1,-1.538616866E-1,-2.508365512E-1
3.949945158E1,-1.387427747E-1,-1.844049394E-1,2.250274867E-1
3.959945158E1,7.567093521E-2,-1.117119789E-1,1.095739529E-1
3.969945118E1,2.204459906E-1,-1.239292845E-1,-5.169447139E-2
3.979945118E1,-1.240820065E-1,-1.355357319E-1,-1.414916664E-1
3.989945118E1,-3.934735656E-1,1.717294902E-1,-3.925572634E-1
3.999945118E1,-4.246276915E-1,2.169335186E-1,-1.506546438E-1
4.009945118E1,-7.704538107E-2,2.682462037E-1,4.726569727E-2
4.019945118E1,1.581377387E-1,1.692860276E-1,1.733330078E-2
4.029945235E1,3.621667325E-1,2.144900560E-1,2.170862406E-1
4.039945235E1,-5.687919259E-1,6.971499324E-2,-2.514474094E-1
4.049945252E1,-1.155298874E-1,-2.155590802E-1,1.181260645E-1
4.059945252E1,-2.390010282E-2,-9.949467331E-2,1.786017269E-1
4.069945248E1,2.448806018E-1,3.795000166E-2,2.372447848E-1
4.079945248E1,1.300379336E-1,-8.666650951E-2,-6.362925172E-1
4.089945248E1,-2.566397488E-1,5.749769136E-2,-3.161991239E-1
4.099945248E1,-5.144249201E-1,2.767983079E-1,-9.078984708E-2
4.109902601E1,-1.619556546E-1,1.308015138E-1,5.215261877E-2
4.119902601E1,1.495856196E-1,1.216385439E-1,-4.192062840E-2
4.129902601E1,2.687043548E-1,2.034944892E-1,1.095739529E-1
4.139902601E1,-2.719113827E-1,-4.232532680E-1,-1.952477992E-1
4.149902688E1,-2.242639065E-1,-2.503784001E-1,-4.130976275E-2
4.159902688E1,-9.476047009E-2,-2.374738641E-2,7.108944654E-2
4.169902688E1,2.094504237E-1,-1.373683214E-1,1.847103834E-1
4.179902688E1,-6.360634416E-2,-5.429064855E-2,-2.624429762E-1
4.189902688E1,-6.402631402E-1,-4.464661479E-1,-5.739842653E-1
4.199902688E1,2.399936765E-1,-3.132975101E-1,6.131559983E-2
4.209902778E1,-2.664135993E-1,4.589125142E-2,-5.658139288E-2
4.219902781E1,1.868484020E-1,6.910412759E-2,3.504839167E-2
4.229902787E1,-7.635815564E-5,2.847395539E-1,-1.598176211E-1
4.239902787E1,-6.133850813E-1,-7.781659365E-1,-2.054034360E-2
4.249902787E1,-3.403283060E-1,-4.757876694E-1,8.208502084E-2
4.259902787E1,-4.344778880E-2,-1.422552466E-1,-4.130976275E-2
4.269902921E1,1.850158125E-1,-4.024074972E-2,5.215261877E-2
4.279902921E1,2.766456008E-1,-1.874592751E-1,-2.948188484E-1
4.289902917E1,-2.322051525E-1,-2.985603921E-2,-2.080759704E-1
4.299902917E1,-7.758752108E-1,5.480225086E-1,-3.595705628E-1
4.309902917E1,-1.277471930E-1,3.091741800E-1,-5.780312419E-2
4.319902917E1,1.868484020E-1,1.063669100E-1,-3.436116967E-3
4.329902987E1,1.709659100E-1,2.645809948E-1,1.541671157E-1
4.339902987E1,-4.924337566E-1,-5.191590786E-1,-3.711769879E-1
4.349902971E1,-1.320232451E-1,-5.710826516E-1,4.168391824E-1
4.359902971E1,1.563051492E-1,-3.713297248E-1,1.822669208E-1
4.369910232E1,2.302198410E-1,-1.685224473E-1,-1.292743534E-1
4.379910232E1,1.458440814E-2,-6.022367477E-1,-2.734385431E-1
4.389910318E1,2.374738641E-2,-1.702786796E-2,-3.192534447E-1
4.399910315E1,-5.846744180E-1,4.679991305E-1,-5.495496392E-1
4.409910308E1,-2.829069793E-1,3.458260894E-1,-6.940956414E-2
4.419910308E1,2.021200359E-1,-4.268420860E-2,-3.275764734E-2
4.429910308E1,1.489747614E-1,2.102140039E-1,-5.535966158E-2
4.439910308E1,-4.967097938E-1,-2.974150181E-1,-1.414916664E-1
4.449910308E1,-1.962404512E-2,-4.709007442E-1,6.742425263E-2
4.459910308E1,-1.259146035E-1,-4.146247730E-2,1.061378326E-2
4.469910308E1,1.098793894E-1,-1.220966876E-1,1.340085566E-1
4.479910308E1,3.847687542E-1,-7.689265907E-2,8.513934165E-2
4.489910308E1,-4.447862506E-1,-2.985603921E-2,-4.371504486E-1
4.499910305E1,-3.989713490E-1,2.151009291E-1,-2.990948856E-1
4.509910218E1,-1.314123869E-1,-4.757113010E-2,-2.984840274E-1
4.519910218E1,4.660138190E-1,6.872233935E-4,1.431715488E-1
4.529910211E1,1.477530301E-1,-1.300379336E-1,4.176791012E-2
4.539910211E1,-5.620723963E-1,-2.180025280E-1,-3.962224722E-1
4.549910211E1,-2.016618848E-1,-6.792057753E-1,-1.414916664E-1
4.559910278E1,-1.008691266E-1,-2.283872366E-1,6.131559983E-2
4.569910098E1,3.016910851E-1,-1.104902476E-1,6.925684959E-2
4.579910098E1,2.332741618E-1,1.094212383E-1,-1.091158018E-1
4.589910101E1,-1.534798928E-2,-3.554472029E-1,2.466368489E-2
4.599910101E1,-5.113705397E-1,5.322163552E-2,-2.459496260E-1
4.609910101E1,1.373683214E-1,7.582364976E-2,9.002626687E-2
4.619910101E1,3.236822188E-1,7.276932150E-2,1.437824070E-1
4.629910084E1,2.008219436E-2,7.263951302E-1,9.980010986E-2
4.639910084E1,1.850158125E-1,1.766164154E-1,4.211152196E-1
4.649910084E1,2.882520258E-1,-3.694971204E-1,2.946661115E-1
4.659910084E1,-2.151009291E-1,1.680642962E-1,3.443752974E-2
4.669910084E1,8.544477820E-2,-3.994295001E-1,-2.420553565E-2
4.679910084E1,3.169626892E-1,1.784490049E-1,6.742425263E-2
4.689909994E1,4.696790278E-1,1.796707362E-1,6.436992437E-2
4.699909998E1,-1.057560444E-1,-2.668717504E-1,6.498079002E-2
4.709909998E1,-3.409391642E-1,1.901318133E-2,-1.011745557E-1
4.719909998E1,2.320524305E-1,3.978259861E-2,7.903069258E-2
4.729909998E1,4.403574765E-1,1.772272736E-1,2.855031490E-1
4.739909998E1,1.282053441E-1,3.519347310E-1,4.980842471E-1
4.749909911E1,-8.376489580E-2,-2.491566688E-1,2.244166136E-1
4.759909911E1,-2.877938747E-1,1.124755666E-1,2.158645093E-1
4.769909911E1,2.900846303E-1,-6.039930135E-2,1.749365330E-1
4.779909911E1,5.069417953E-1,2.853504419E-1,1.303433776E-1
4.789909911E1,2.858085632E-1,-1.145372284E-3,-1.695914567E-1
4.799909911E1,-1.277471930E-1,-3.847687542E-1,-1.421025246E-1
4.809909911E1,-1.185842156E-1,6.299547851E-2,2.290744742E-4
4.819909911E1,1.385900527E-1,1.753946841E-1,-8.040513843E-2
4.829909911E1,3.450624943E-1,2.395355403E-1,2.109775841E-1
4.839909911E1,5.917757004E-2,4.997641146E-1,3.184898794E-1
4.849909911E1,-8.865182102E-2,-3.817144334E-1,4.687627256E-1
4.859909844E1,-1.931097806E-1,-3.474296257E-2,9.002626687E-2
4.869909941E1,2.858085632E-1,-9.888381511E-2,9.185886383E-2
4.879909941E1,3.261256814E-1,-8.116871864E-2,-1.213331074E-1
4.889909941E1,3.633884490E-1,8.628471754E-3,2.238057554E-1
4.899909941E1,3.596469015E-2,9.598220140E-2,2.781727612E-1
4.909909941E1,-1.185842156E-1,-1.756237587E-3,-8.956811577E-2
4.919909941E1,1.092685238E-1,3.158936799E-1,7.231117040E-2
4.929909771E1,4.153120220E-1,8.498662710E-2,8.391761035E-2
4.939909771E1,7.769442201E-1,3.489567712E-2,5.029711723E-1
4.949909771E1,1.465312988E-1,3.550654277E-2,1.456149966E-1
4.959909771E1,-2.511419654E-1,5.749769136E-2,-2.624429762E-1
4.969909771E1,1.074359268E-1,-2.833651304E-1,5.642867833E-2
4.979909771E1,1.685224473E-1,-1.795180291E-1,2.283108793E-2
4.989909774E1,2.619084716E-2,-1.214094646E-2,-6.940956414E-2
4.999909774E1,1.899027377E-1,5.144249201E-1,-1.604284793E-1
5.009909774E1,-1.760055423E-1,2.639701366E-1,4.970915988E-2
5.019909774E1,3.718642145E-2,-2.070069611E-1,-1.268308908E-1
5.029909774E1,5.062545836E-2,9.109527618E-2,-1.329395473E-1
5.039909774E1,-8.559749275E-2,-6.772968173E-2,-1.506546438E-1
5.049909774E1,-1.179733500E-1,9.170614183E-2,8.391761035E-2
5.059909774E1,-4.423427880E-1,-1.526399553E-1,-5.597052723E-2
5.069909771E1,-1.387427747E-1,-1.043815985E-1,6.864598393E-2
5.079909771E1,3.389538527E-1,-2.051743716E-1,7.841982692E-2
5.089909771E1,1.892918646E-1,-1.721876413E-1,-3.397937864E-2
5.099909774E1,-4.667774141E-1,4.955644161E-2,-3.699552715E-1
5.109909774E1,-1.106429696E-1,7.704538107E-2,-1.091158018E-1
5.119909774E1,-3.550654277E-2,3.128393590E-1,1.061378326E-2
5.129909774E1,-6.055201590E-2,9.598220140E-2,3.871358559E-2
5.139909774E1,-1.718058437E-2,-5.184718594E-2,-7.429648191E-2
5.149909771E1,-3.775910735E-1,-3.780492246E-1,-2.673299015E-1
5.159909771E1,-7.093672454E-2,-3.328452110E-1,7.536549866E-2
5.169909674E1,1.220966876E-1,7.406740915E-3,1.645518243E-1
5.179909674E1,2.430480123E-1,-7.261660695E-2,8.758280426E-2
5.189909674E1,1.147663072E-1,-5.856670439E-2,-5.597052723E-2
5.199909674E1,-3.635411859E-1,-3.438407779E-1,-3.094795942E-1
5.209909674E1,-2.432007194E-1,-5.367978290E-2,-3.717878461E-1
5.219909674E1,-3.580434024E-1,1.741729528E-1,-3.430771828E-1
5.229909674E1,-1.057560444E-1,2.199878395E-1,5.459608138E-2
5.239909674E1,1.153771728E-1,-3.229949996E-2,2.103667259E-1
5.249909674E1,-5.938373804E-1,-3.548363447E-1,-3.131448030E-1
5.259909674E1,-7.460191846E-2,-5.075526834E-1,2.464077622E-1
5.269909761E1,5.345070967E-4,4.283692688E-2,1.144608781E-1
5.279909761E1,2.002874464E-1,-8.422304690E-2,8.147415519E-2
5.289909761E1,9.827294946E-2,-1.624137908E-1,-1.030071527E-1
5.299909761E1,8.300131559E-2,-2.496911772E-2,-1.870774850E-2
5.309909757E1,-1.718058437E-2,-3.023019433E-1,-2.237293869E-2
5.319909757E1,-2.358703464E-1,3.788128197E-1,-8.468119800E-2
5.329909757E1,7.139487565E-2,1.967749745E-1,-4.253149405E-2
5.339909757E1,1.007164046E-1,2.975677252E-1,3.260493279E-2
5.349909757E1,1.935679317E-1,8.552877307E-1,6.330854893E-1
5.359909757E1,-3.788128197E-1,-3.615558743E-1,2.506838143E-1
5.369909761E1,-3.299435973E-1,2.523637116E-1,-6.330090761E-2
5.379909760E1,3.878230751E-1,-4.512767121E-2,2.928335369E-1
5.389853150E1,3.004693389E-1,-1.666898578E-1,-1.152244583E-1
5.399853150E1,1.349248588E-1,1.607339233E-1,-1.017854214E-1
5.409853150E1,9.155342728E-2,1.662317067E-1,2.598468065E-1
5.419853150E1,-1.454622895E-1,6.055201590E-2,-7.673994452E-2
5.429853150E1,1.446987092E-1,-4.818199575E-2,-2.795472145E-1
5.439853150E1,5.894085765E-1,-9.705121815E-2,1.211803928E-1
5.449853153E1,2.008983046E-1,6.360634416E-2,9.308059514E-2
5.459853153E1,-2.291508317E-1,-4.922810197E-1,1.095739529E-1
5.469853153E1,-4.282929003E-1,-2.008219436E-2,1.425606757E-1
5.479853153E1,2.027309090E-1,7.635815564E-5,2.848922908E-1
5.489853153E1,3.572798073E-1,5.505422875E-2,-1.390482038E-1
5.499853150E1,2.528218627E-1,5.077817291E-2,-3.522401750E-1
5.509853150E1,1.501964927E-1,-1.868484020E-1,-2.013564557E-1
5.519853146E1,-1.827250719E-1,3.367394581E-2,1.749365330E-1
5.529849813E1,1.123228446E-1,2.023491077E-2,2.445751727E-1
5.539846480E1,1.190423667E-1,2.694679201E-1,2.384665161E-1
5.549843146E1,3.346777856E-1,6.610325575E-1,4.565454125E-1
5.559839813E1,-2.114357352E-1,3.128393590E-1,2.806162238E-1
5.569836393E1,-3.702606857E-1,1.143081561E-1,-1.176679209E-1
5.579833060E1,1.330922693E-1,-2.387719452E-1,1.236238554E-1
5.589829726E1,4.464661479E-1,-1.343140006E-1,5.642867833E-2
5.599826393E1,4.971679449E-1,3.378848433E-1,-2.542726509E-2
5.609823063E1,7.506006956E-2,1.668425649E-1,-1.198823005E-2
5.619819726E1,-3.213914633E-1,4.386776090E-1,2.649627998E-2
5.629816393E1,2.381610870E-1,3.971387744E-1,1.926516294E-1
5.639813059E1,5.271003246E-1,4.832707644E-1,1.364520192E-1
5.649809722E1,1.520290822E-1,2.578614950E-1,3.526983261E-1
5.659806389E1,1.336267684E-2,2.102140039E-1,1.871538460E-1
5.669803056E1,-6.781367660E-1,-1.581377387E-1,-1.579850167E-1
5.679799722E1,-1.046106778E-2,-3.413209692E-2,1.266781837E-1
5.689796386E1,4.641812146E-1,-4.183663428E-1,1.059087589E-1
5.699793052E1,3.731622994E-1,1.136972904E-1,5.215261877E-2
5.709789719E1,-7.826711237E-2,1.014799923E-1,-2.997057736E-1
5.719786382E1,-3.861432076E-1,6.164394021E-1,-2.117411643E-1
5.729783049E1,3.840815276E-2,1.173624843E-1,-9.544769302E-3
5.739779712E1,1.190423667E-1,-3.432299197E-1,-2.178498209E-1
5.749776379E1,2.924517356E-2,-1.145372284E-3,1.061378326E-2
5.759773045E1,-1.998292953E-1,-2.977967961E-3,-1.201113760E-1
5.769769715E1,-3.702606857E-1,-2.845868468E-1,-8.040513843E-2
5.779766382E1,9.155342728E-2,-2.949715555E-1,2.616794109E-1
5.789763048E1,1.074359268E-1,-2.662608922E-1,-3.703370690E-2
5.799759718E1,4.810563754E-3,-1.709659100E-1,-1.066723466E-1
5.809756385E1,-3.696498275E-1,-1.056033298E-1,-4.279874563E-1
5.819753052E1,-3.769802153E-1,1.845576614E-1,-5.031238794E-1
5.829753052E1,1.538616866E-1,-1.892918646E-1,6.009386852E-2
5.839753048E1,1.599703431E-1,6.872233935E-4,-1.976912618E-1
5.849753048E1,-8.017606102E-3,-1.673007160E-1,-1.879174262E-1
5.859753048E1,-3.427717686E-1,-3.487277031E-1,-1.726457924E-1
5.869753045E1,-9.884563088E-1,-4.794528484E-1,-3.406337202E-1
5.879753045E1,-1.815033406E-1,2.144900560E-1,2.745075822E-1
5.889753045E1,2.192242593E-1,-1.086576581E-1,1.786017269E-1
5.899753045E1,5.612324551E-2,1.094212383E-1,-7.796167582E-2
5.909753045E1,-4.539492428E-1,-6.553820372E-1,-5.092325211E-1
5.919753045E1,-6.940192580E-1,3.000111878E-1,-2.673299015E-1
5.929753045E1,-7.887797803E-2,2.401463985E-1,-1.085049361E-1
5.939753041E1,4.635703564E-1,-6.589708477E-2,-1.017854214E-1
5.949753045E1,3.096323311E-1,-1.697441787E-1,-2.349540442E-1
5.959753045E1,-4.301255047E-1,-3.542254865E-1,-3.864486217E-1
5.969753045E1,-2.829069793E-1,-4.037055671E-1,-9.567677230E-2
5.979749711E1,-2.016618848E-1,-1.355357319E-1,-5.597052723E-2
5.989746381E1,3.041345477E-1,-2.399936765E-1,1.889864355E-1
5.999743048E1,2.192242593E-1,3.184135258E-2,7.353290170E-2
6.009739724E1,-2.102140039E-1,-3.811035454E-1,-1.292743534E-1
6.019736391E1,-1.790598780E-1,5.077817291E-2,4.604396969E-2
6.029733068E1,-1.351539325E-2,9.720393270E-2,-1.076649968E-2
6.039729738E1,2.717586756E-1,-7.139487565E-2,-1.146135926E-1
6.049726404E1,1.214858219E-1,2.719113827E-1,4.054617882E-2
6.059723101E1,-4.771621227E-1,-4.354705513E-1,-3.581197560E-2
6.069719764E1,-3.672827408E-2,-4.232532680E-1,3.826307058E-1
6.079716431E1,-2.566397488E-1,-1.068250611E-1,6.620252132E-2
6.089713097E1,2.839759886E-1,-1.770745665E-1,5.459608138E-2
6.099709764E1,1.899027377E-1,-1.495856196E-1,-2.331214547E-1
6.109641353E1,-2.975677252E-1,-4.214206636E-1,-5.171737671E-1
6.119638020E1,-1.753946841E-1,-1.007164046E-1,-1.198823005E-2
6.129634687E1,-5.505422875E-2,2.303725630E-1,-9.544769302E-3
6.139631353E1,1.526399553E-1,2.187661231E-1,-5.352706835E-2
6.149628020E1,1.355357319E-1,3.262783885E-1,-1.353830099E-1
6.159624686E1,-4.344778880E-2,3.130684374E-3,1.236238554E-1
6.169618023E1,-2.187661231E-1,-3.065779805E-1,1.040761694E-1
6.179611356E1,-4.832707644E-1,-8.475755341E-3,-2.239584774E-1
6.189604690E1,1.245401502E-1,-1.410335153E-1,-3.825543448E-2
6.199598020E1,3.780492246E-1,3.672827408E-2,-4.192062840E-2
6.209591373E1,-4.955644161E-2,-3.859904706E-1,-5.413793400E-2
6.219584706E1,-2.083813995E-1,-2.332741618E-1,-9.140071273E-2
6.229578039E1,5.429064855E-2,-2.332741618E-1,7.475463301E-2
6.239571376E1,4.953353703E-1,-1.575268805E-1,-8.284860104E-2
6.249564726E1,3.475059569E-1,3.446043432E-1,8.269587904E-2
6.259558069E1,5.856670439E-2,5.962808132E-1,6.734025478E-1
6.269551403E1,-2.688570619E-1,-4.085924923E-1,3.368158340E-1
6.279548069E1,-4.478405714E-1,1.381319016E-1,1.388954818E-1
6.289544736E1,2.479349375E-1,-3.901901841E-2,2.964987159E-1
6.299541399E1,1.905135959E-1,5.994115397E-2,1.244637929E-2
6.309538056E1,5.551237985E-2,1.992184222E-1,3.382666409E-2
6.319534726E1,6.711881608E-2,-4.263075888E-1,9.369145334E-2
6.329531382E1,-6.727153808E-2,2.743548453E-1,-2.935971022E-1
6.339528049E1,1.850158125E-1,3.317761719E-1,-1.188896447E-1
6.349524716E1,1.874592751E-1,9.659306705E-2,-5.535966158E-2
6.359521376E1,2.283872366E-1,3.836997449E-1,2.543490231E-1
6.369518056E1,-1.570687294E-1,-3.291036561E-2,-6.574437022E-2
6.379514722E1,-2.664135993E-1,1.063669100E-1,-7.307475805E-2
6.389511389E1,3.218496144E-1,-1.917353272E-1,3.771329224E-1
6.399529842E1,4.947244823E-1,6.910412759E-2,1.413389444E-1
6.409526508E1,5.063309073E-1,4.832707644E-1,2.323578745E-1
6.419523178E1,-8.071056753E-2,7.406740915E-3,1.871538460E-1
6.429519845E1,-1.845576614E-1,5.083162189E-1,-1.824196279E-1
6.439516515E1,2.320524305E-1,5.566509441E-2,-2.237293869E-2
6.449513181E1,2.063960880E-1,-1.618029326E-1,8.025242388E-2
6.459509915E1,1.178206354E-1,4.008039534E-1,5.377904773E-1
6.469509915E1,3.779728711E-2,-2.381610870E-1,3.606395721E-1
6.479509915E1,-4.563927054E-1,1.277471930E-1,-3.947716579E-2
6.489509931E1,2.002874464E-1,-9.949467331E-2,2.433534414E-1
6.499509931E1,4.525747895E-1,3.245221451E-2,2.348013222E-1
6.509509911E1,2.063960880E-1,7.521278411E-2,1.340085566E-1
6.519509915E1,5.062545836E-2,-6.223189831E-2,1.993711442E-1
6.529509915E1,-2.603049576E-1,1.973858327E-1,-3.168099821E-1
6.539509915E1,2.051743716E-1,3.879757822E-1,-3.947716579E-2
6.549509898E1,1.453095675E-1,3.342196345E-1,3.871358559E-2
6.559509888E1,-1.130864322E-1,2.309834212E-1,2.781727612E-1
6.569509888E1,7.139487565E-2,2.566397488E-1,9.918924421E-2
6.579509888E1,-2.083813995E-1,-4.810563754E-3,-5.268712528E-3
6.589509888E1,2.039526403E-1,-3.114649057E-1,2.231948823E-1
6.599509888E1,2.650391459E-1,-1.923462003E-1,1.450804994E-3
6.609509885E1,-1.473712362E-2,-1.104902476E-1,-2.471713424E-1
6.619509884E1,-3.213914633E-1,3.122285008E-1,-3.186425865E-1
6.629509884E1,-4.020256996E-1,3.856086731E-2,-1.763109863E-1
6.639509884E1,-4.894557595E-2,9.720393270E-2,6.864598393E-2
6.649509884E1,1.856266707E-1,-5.184718594E-2,8.399396902E-4
6.659509928E1,3.163518310E-1,1.198059469E-1,1.672243699E-2
6.669509914E1,-2.004401535E-1,4.661665261E-1,-2.685516477E-1
6.679509914E1,-4.557818174E-1,3.245221451E-2,-6.940956414E-2
6.689509914E1,6.956227869E-2,-9.338602424E-2,2.738966942E-1
6.699509914E1,1.990657151E-1,-2.070069611E-1,1.523345262E-1
6.709509914E1,1.886810064E-1,-9.094256163E-2,-2.587777972E-1
6.719509914E1,-3.611740842E-2,-2.027309090E-1,-4.047745764E-1
6.729509914E1,-5.504659414E-1,2.541962862E-1,-3.882812262E-1
6.739509914E1,-1.967749745E-1,-2.496911772E-2,-5.291620269E-2
6.749509914E1,4.336379766E-1,-1.756237587E-3,1.804343164E-1
6.759509848E1,1.483639032E-1,1.320232451E-1,-1.036180183E-1
6.769509848E1,-4.563927054E-1,-6.572146416E-1,-4.664719701E-1
6.779509848E1,1.025490016E-1,-6.340017915E-1,1.193477958E-1
6.789509831E1,-3.000875562E-2,1.155298874E-1,1.333976984E-1
6.799509831E1,-4.589125142E-2,-2.191479132E-2,5.215261877E-2
6.809509831E1,-7.643451542E-2,-2.069306001E-2,-1.787544489E-1
6.819509831E1,-8.650615215E-1,7.460191846E-2,-5.959753990E-1
6.829509838E1,-1.320232451E-1,-5.123632401E-2,1.718822122E-1
6.839509838E1,5.062545836E-2,1.717294902E-1,-3.642284125E-2
6.849509838E1,3.811035454E-1,1.840231568E-2,-6.330090761E-2
6.859509904E1,2.338850349E-1,3.293327391E-1,-1.323286891E-1
6.869509904E1,-2.340377420E-1,-3.517820239E-1,5.215261877E-2
6.879509904E1,-1.931097806E-1,-6.266713738E-1,1.871538460E-1
6.889509904E1,-2.254856378E-1,-2.045634985E-1,1.224021241E-1
6.899509908E1,4.226423800E-1,-2.845868468E-1,2.690097690E-1
6.909509911E1,2.827542424E-1,-1.673007160E-1,-1.127809957E-1
6.919509911E1,9.460775554E-2,-2.473240644E-1,-1.781435758E-1
6.929509911E1,-2.077705413E-1,-3.145192564E-1,-3.436116967E-3
6.939509911E1,3.596469015E-2,5.199990422E-2,-4.192062840E-2
6.949509911E1,1.538616866E-1,1.912771761E-1,-1.748601720E-2
6.959509864E1,2.534327209E-1,7.887797803E-2,3.810271993E-2
6.969509877E1,-2.817615867E-2,5.994115397E-2,2.274709493E-1
6.979509877E1,-1.863902509E-1,-1.905135959E-1,1.028544381E-1
6.989509877E1,1.214094646E-2,-9.582948685E-2,4.125631154E-1
6.999509877E1,1.202640980E-1,-1.129337102E-1,8.697193861E-2
7.009509877E1,-4.352414981E-3,-8.116871864E-2,-6.513350457E-2
7.019509877E1,1.624137908E-1,3.531564772E-1,-8.284860104E-2
7.029509877E1,2.741257846E-2,-3.438407779E-1,-1.137736533E-2
7.039509877E1,-5.383250117E-2,1.718058437E-2,-1.585958898E-1
7.049509877E1,1.947896481E-1,-1.135445759E-1,-6.490443368E-3
7.059509854E1,3.267365396E-1,-7.506006956E-2,-6.757696718E-2
7.069509854E1,1.526399553E-1,4.161519557E-2,2.653445899E-1
7.079509854E1,-1.369101703E-1,-4.654029608E-1,7.658722997E-2
7.089509854E1,1.624137908E-1,3.550654277E-2,3.221550584E-1
7.099509854E1,8.788824081E-2,1.295797974E-1,1.755474061E-1
7.109509854E1,1.239292845E-1,-2.467132062E-1,-2.970332280E-2
7.119509854E1,8.116871864E-2,2.731331289E-1,7.658722997E-2
7.129509847E1,4.940372705E-2,-3.597232699E-1,6.986771524E-2
7.139509847E1,-2.242639065E-1,1.229366288E-2,-3.825543448E-2
7.149509857E1,2.943606973E-1,3.550654277E-2,5.032002553E-2
7.159509791E1,5.014439821E-1,-1.251510233E-1,-5.879578181E-3
7.169509791E1,5.142721534E-1,4.295146167E-1,3.276528418E-1
7.179509791E1,-6.604980677E-2,-1.086576581E-1,2.427425832E-1
7.189509791E1,-1.900554448E-1,6.482807547E-2,3.199406713E-2
7.199509787E1,2.546544373E-1,-1.941787899E-1,2.372447848E-1
7.209509787E1,2.516001165E-1,-3.896556795E-1,-1.567633003E-1
7.219509787E1,1.746311039E-1,3.489567712E-2,-2.054034360E-2
7.229509787E1,1.795180291E-1,-3.395647109E-1,5.276348442E-2
7.239509787E1,-1.821141988E-1,1.656972058E-2,-1.103375331E-1
7.249509787E1,7.506006956E-2,1.411862224E-1,9.369145334E-2
7.259509767E1,3.505602777E-1,1.839468032E-1,1.877647042E-1
7.269509754E1,2.375502288E-1,4.741078019E-1,1.065196246E-1
7.279509754E1,-1.466840208E-1,2.279291004E-1,1.584431678E-1
7.289509764E1,-3.311653137E-1,-1.031598672E-1,7.780896127E-2
7.299509767E1,-5.077817291E-2,-2.374738641E-2,3.362049460E-1
7.309509767E1,2.955824137E-1,1.168279815E-2,2.335795909E-1
7.319509767E1,2.674826086E-1,4.734969139E-1,3.178789914E-1
7.329509767E1,7.933612168E-2,3.843106031E-1,-2.581669390E-1
7.339509767E1,-5.767331719E-1,6.622542739E-1,-2.636647224E-1
7.349509767E1,-5.933028832E-2,2.432007194E-1,1.205695271E-1
7.359509790E1,-6.849326193E-2,-1.288162023E-1,-4.375322163E-2
7.369509790E1,3.994295001E-1,-1.886046492E-2,-1.640936732E-1
7.379509790E1,-1.784490049E-1,3.006220460E-1,-3.275764734E-2
7.389509790E1,-3.928627074E-1,4.039346427E-2,3.565925732E-2
7.399492298E1,1.227075532E-1,1.779145002E-2,3.215442002E-1
7.409492299E1,8.483391255E-2,9.537133574E-2,-9.078984708E-2
7.419492298E1,-2.206750773E-2,-7.811439037E-2,-2.196824104E-1
7.429492305E1,-1.521818042E-1,8.926268667E-2,-2.514474094E-1
7.439492305E1,-3.116176426E-1,1.411862224E-1,-3.369685411E-1
7.449492295E1,1.819614917E-1,6.666067243E-2,2.466368489E-2
7.459492295E1,4.806745946E-1,-1.752419621E-1,2.038762718E-2
7.469492295E1,3.566689491E-1,-7.872525603E-2,-2.054034360E-2
7.479492295E1,-4.283692688E-2,1.979966909E-1,-1.836413592E-1
7.489492295E1,-2.786309123E-1,-1.501964927E-1,-1.512655020E-1
7.499492295E1,-5.574145354E-3,-2.094504237E-1,1.450041384E-1
7.509492295E1,2.057852298E-1,-2.021200359E-1,4.543310404E-2
7.519492295E1,3.840815276E-2,-1.159880385E-1,-3.223077655E-1
7.529492295E1,-2.120465934E-1,-4.573853686E-2,-4.896848500E-1
7.539492295E1,-2.743548453E-1,1.118647009E-1,-2.013564557E-1
7.549492295E1,-1.002582610E-1,2.077705413E-1,-8.040513843E-2
7.559492295E1,2.680934966E-1,1.375210434E-1,-1.732566506E-1
7.569492295E1,-2.267837152E-2,3.965279162E-1,-9.567677230E-2
7.579492295E1,-3.501021564E-1,-3.853796124E-1,3.565925732E-2
7.589492285E1,-3.336087763E-1,-1.086576581E-1,2.720641196E-1
7.599492282E1,-1.198059469E-1,6.185010541E-3,3.154355288E-1
7.609492282E1,2.906954885E-1,-1.514182240E-1,1.254564524E-1
7.619492278E1,1.373683214E-1,-2.485457957E-1,-2.661081851E-1
7.629492278E1,-7.202864885E-1,-2.143373489E-1,-5.837581158E-1
7.639492278E1,-2.651918828E-1,2.633592784E-1,-2.459496260E-1
7.649492305E1,1.098793894E-1,1.540143937E-1,-9.445504099E-2
7.659492305E1,3.114649057E-1,1.460731477E-1,-3.275764734E-2
7.669492305E1,1.416443735E-1,2.566397488E-1,9.124799818E-2
7.679492305E1,-1.246928647E-1,3.741549561E-3,9.430231899E-2
7.689492305E1,-3.433826268E-1,-2.754238546E-1,-2.013564557E-1
7.699492302E1,-9.476047009E-2,4.100432992E-2,1.645518243E-1
7.709492302E1,2.289981097E-1,-2.516001165E-1,1.902081668E-1
7.719492298E1,1.355357319E-1,-1.489747614E-1,-2.141846269E-1
7.729492291E1,2.851977050E-1,-5.808565021E-1,-1.311069578E-1
7.739492291E1,-3.702606857E-1,-2.558761835E-1,-2.306779921E-1
7.749492301E1,-3.458260894E-1,3.917173296E-2,-5.780312419E-2
7.759492301E1,1.091921609E-2,3.733913973E-2,-2.787072770E-2
7.769492301E1,2.705369592E-1,5.663484335E-1,2.659554482E-1
7.779492301E1,-2.474767864E-1,-2.796999216E-1,-1.687515154E-2
7.789492301E1,-4.734969139E-1,-5.606979132E-1,-3.459024429E-2
7.799492301E1,-2.334268838E-1,-1.996765733E-1,2.955060638E-2
7.809492301E1,1.404226422E-1,-2.210568637E-1,1.621083617E-1
7.819492298E1,3.255148232E-1,3.795000166E-2,9.392052889E-3
7.829492305E1,-3.910301030E-1,-2.021200359E-1,-4.426482320E-1
7.839492305E1,-6.849326193E-2,-3.261256814E-1,8.170322515E-3
7.849492305E1,-5.138903856E-2,7.948884368E-2,5.032002553E-2
7.859492305E1,8.544477820E-2,7.887797803E-2,-2.037999183E-1
7.869492305E1,3.016910851E-1,2.816852331E-1,7.231117040E-2
7.879492305E1,-1.253037304E-1,-1.642463952E-1,-8.407033235E-2
7.889492305E1,-2.297616899E-1,-4.818963110E-1,1.633300930E-1
7.899492305E1,-1.246928647E-1,5.627596006E-2,1.663844138E-1
7.909492301E1,2.766456008E-1,-2.363284975E-1,2.800053656E-1
7.919492305E1,1.489747614E-1,-1.092685238E-1,-1.219439730E-1
7.929492304E1,-2.059379518E-1,-2.802344225E-2,-2.001347244E-1
7.939492304E1,-2.358703464E-1,-3.229949996E-2,-3.947716579E-2
7.949492278E1,-1.417970955E-1,8.498662710E-2,-1.524872333E-1
7.959492344E1,1.056033298E-1,1.779145002E-2,-2.160172164E-1
7.969492341E1,2.937498391E-1,-1.501964927E-1,-8.933904581E-3
7.979492341E1,3.328452110E-1,3.116176426E-1,5.420665741E-1
7.989492344E1,-1.222494096E-1,-4.482987225E-1,2.781727612E-1
7.999492344E1,-2.761874497E-1,1.772272736E-1,1.089630872E-1
8.009492344E1,2.485457957E-1,-1.746311039E-1,1.773799956E-1
8.019492344E1,2.570978999E-1,1.356884390E-1,-9.995282441E-2
8.029492344E1,2.613739669E-1,1.613447815E-1,-1.626428775E-2
8.039492344E1,-1.680642962E-1,8.017606102E-3,-8.956811577E-2
8.049492338E1,-1.168279815E-2,4.154647291E-1,4.665483162E-2
8.059492338E1,2.509892583E-1,1.870011240E-1,6.009386852E-2
8.069492338E1,1.220966876E-1,1.228602752E-1,-8.956811577E-2
8.079492338E1,2.253329158E-1,5.474116206E-1,6.055965424E-1
8.089492338E1,-2.236530334E-1,-1.514182240E-1,2.983313203E-1
8.099492311E1,-4.130212665E-1,-1.715767831E-1,1.144608781E-1
8.109492311E1,1.886810064E-1,-8.666650951E-2,2.592359483E-1
8.119474175E1,4.311945140E-1,5.933028832E-2,7.658722997E-2
8.129474195E1,3.536146283E-1,4.894557595E-2,1.492801905E-1
8.139474195E1,1.886046492E-2,-3.401755691E-1,-2.725986205E-2
8.149474198E1,-2.285399586E-1,3.367394581E-2,-1.433242559E-1
8.159474198E1,1.563051492E-1,3.220023513E-1,-8.590292186E-2
8.169474198E1,5.582544804E-1,2.682462037E-1,1.950950921E-1
8.179474198E1,3.426190317E-1,2.468659133E-1,3.972914815E-1
8.189474198E1,-7.643451542E-2,6.185010541E-3,1.676061451E-1
8.199474198E1,-5.199226737E-1,-9.277515858E-2,-7.307475805E-2
8.209474202E1,1.257618815E-1,-3.658319116E-1,1.450804994E-3
8.219474198E1,3.872122169E-1,-3.517820239E-1,3.871358559E-2
8.229474198E1,3.962988406E-2,1.735620946E-1,9.308059514E-2
8.239474198E1,-1.839468032E-1,-2.143373489E-1,-5.269476175E-1
8.249474202E1,-4.069126248E-1,4.692208767E-1,-2.929862440E-1
8.259474135E1,-6.482807547E-2,1.008691266E-1,-1.708131880E-1
8.269474141E1,1.770745665E-1,-7.750352472E-2,-1.616502106E-1
8.279474141E1,3.664427996E-1,2.242639065E-1,1.517236531E-1
8.289474135E1,-3.647629023E-1,-4.843397737E-1,-2.603813075E-2
8.299474135E1,3.046690486E-2,-4.391357601E-1,2.641228735E-1
8.309474135E1,-2.205987126E-1,-4.043164253E-1,-1.842522323E-1
8.319474135E1,1.245401502E-1,-4.451680556E-2,-1.830305010E-1
8.329474135E1,3.884339333E-1,-7.872525603E-2,-1.946369410E-1
8.339474135E1,-2.322051525E-1,-4.409683347E-1,-6.326273084E-1
8.349474131E1,-4.484514594E-1,4.528038576E-2,-2.306779921E-1
8.359474131E1,-1.882228553E-1,1.075886413E-1,-8.956811577E-2
8.369474131E1,3.749949038E-1,3.123048507E-2,5.276348442E-2
8.379474131E1,4.263075888E-1,2.450333238E-1,-9.384417534E-2
8.389474131E1,1.763873361E-2,1.155298874E-1,1.498910636E-1
8.399467686E1,-5.205335617E-1,-4.763985276E-1,-4.619668424E-2
8.409467686E1,-3.501021564E-1,1.552361250E-1,1.199586615E-1
8.419467686E1,1.117119789E-1,-1.062141955E-1,1.957059503E-1
8.429467660E1,-4.039346427E-2,1.662317067E-1,-1.023962870E-1
8.439467660E1,5.978843570E-2,6.238461286E-2,9.002626687E-2
8.449467656E1,1.398117840E-1,-5.087743998E-1,4.115704447E-2
8.459467656E1,-9.598220140E-2,6.910412759E-2,-1.934152097E-1
8.469467653E1,7.322747260E-2,1.662317067E-1,-1.005636901E-1
8.479467653E1,8.666650951E-2,2.199878395E-1,-1.671480089E-1
8.489467653E1,-2.126574665E-1,6.971499324E-2,1.688278764E-1
8.499467653E1,-1.625665128E-1,-5.619196892E-1,2.164753675E-1
8.509467653E1,-3.684281111E-1,1.760055423E-1,5.765040591E-2
8.519467656E1,2.363284975E-1,-1.294270754E-1,2.738966942E-1
8.529467656E1,2.913063765E-1,9.048441797E-2,-3.092505224E-2
8.539467656E1,7.635052204E-1,4.105778039E-1,4.058435857E-1
8.549467653E1,-2.419789881E-1,-2.125047445E-1,-7.429648191E-2
8.559467653E1,-1.534035355E-1,-1.580613852E-2,-1.928043365E-1
8.569467663E1,5.673411116E-2,4.894557595E-2,-1.824196279E-1
8.579467663E1,3.859904706E-1,4.032474160E-1,3.001639247E-1
8.589467666E1,-1.674534380E-1,4.643339515E-1,2.036471963E-1
8.599464333E1,-2.756529488E-2,-1.972331107E-1,3.465896547E-1
8.609460999E1,-3.550654277E-2,-5.429064855E-2,1.822669208E-1
8.619454336E1,4.049273133E-1,-2.155590802E-1,3.068834245E-1
8.629447669E1,1.905135959E-1,-1.758528352E-1,-1.329395473E-1
8.639441002E1,3.872122169E-1,3.299435973E-1,2.038762718E-2
8.649434346E1,-4.589125142E-2,1.680642962E-1,-5.230533704E-2
8.659427746E1,-8.437576145E-2,1.204168126E-1,5.032002553E-2
8.669421076E1,1.178206354E-1,1.718058437E-2,-1.964695305E-1
8.679414409E1,1.642463952E-1,1.253037304E-1,-1.323286891E-1
8.689407742E1,2.082286924E-1,3.048981130E-1,3.099377453E-1
8.699401076E1,1.141554415E-1,1.240820065E-1,2.409099787E-1
8.709394409E1,-5.278639197E-1,-6.223189831E-2,-8.933904581E-3
8.719387746E1,1.740202308E-1,-1.966222525E-1,3.429244757E-1
8.729381079E1,1.214858219E-1,-2.015091777E-1,-1.115592644E-1
8.739374412E1,1.685224473E-1,2.877938747E-1,1.205695271E-1
8.749367745E1,-8.865182102E-2,3.158936799E-1,-9.384417534E-2
8.759361082E1,-1.344667077E-1,1.161407530E-1,1.761582643E-1
8.769354419E1,1.605812013E-1,9.781479836E-2,1.926516294E-1
8.779344415E1,1.385900527E-1,-4.199698567E-3,6.620252132E-2
8.789334412E1,-6.795875728E-3,3.592651188E-1,3.221550584E-1
8.799324412E1,-3.611740842E-2,2.963460088E-1,6.131559983E-2
8.809314422E1,-1.161407530E-1,-8.727737516E-2,9.392052889E-3
8.819304422E1,1.453095675E-1,-3.731622994E-1,2.525164187E-1
8.829294422E1,4.482987225E-1,-2.803107798E-1,8.170322515E-3
8.839284422E1,5.814673305E-1,-9.697485715E-3,6.436992437E-2
8.849274422E1,-1.112538353E-1,2.297616899E-1,-3.400228620E-1
8.859264422E1,-2.804635167E-1,6.604980677E-2,-1.274417639E-1
8.869254408E1,2.235003263E-1,3.550654277E-2,1.895972937E-1
8.879244405E1,4.531856477E-1,-1.367574632E-1,1.657735556E-1
8.889234405E1,-9.850202128E-3,-2.827542424E-1,-1.781435758E-1
8.899227738E1,-1.766164154E-1,-6.345362961E-2,-2.990948856E-1
8.909221078E1,-3.421608806E-1,-2.265546471E-1,-1.396590620E-1
8.919217745E1,5.978843570E-2,-2.557998151E-2,1.034653038E-1
8.929214415E1,2.161699384E-1,4.283692688E-2,-2.990948856E-1
8.939211082E1,4.293619096E-1,5.322163552E-2,1.169043332E-1
8.949207738E1,3.334560692E-1,9.537133574E-2,5.276348442E-2
8.959204315E1,-3.317761719E-1,2.829069793E-1,-1.443169173E-2
8.969201008E1,-2.230421752E-1,8.009970188E-2,-8.040513843E-2
8.979197671E1,-1.173624843E-1,6.177374721E-2,-2.172389477E-1
8.989194345E1,3.377321362E-1,1.986075640E-1,1.297325045E-1
8.999191011E1,-1.002582610E-1,-4.696026444E-2,6.559165567E-2
9.009187701E1,-5.132031441E-1,-4.776202738E-1,1.596648991E-1
9.019184368E1,-5.016730726E-2,-4.451680556E-2,2.586250603E-1
9.029181038E1,1.819614917E-1,-4.379140139E-1,7.414376736E-2
9.039177704E1,-1.411862224E-1,-4.573853686E-2,-2.496148050E-1
9.049174371E1,-5.681810379E-1,-3.535382450E-2,-1.970804036E-1
9.059171034E1,-9.850202128E-3,-1.184315011E-1,2.409099787E-1
9.069167701E1,-8.987355232E-2,2.560288906E-1,7.841982692E-2
9.079167701E1,3.835470080E-1,1.466840208E-1,5.115996581E-3
9.089167701E1,3.047454059E-1,-2.577087879E-1,-7.918340713E-2
9.099167701E1,-2.370920777E-1,-2.919172347E-1,-2.037999183E-1
9.109167691E1,-4.869359732E-1,-3.236822188E-1,-7.735081017E-2
9.119167691E1,1.519527286E-2,-2.985603921E-2,2.586250603E-1
9.129167694E1,2.906954885E-1,-1.275181212E-2,4.333325326E-1
9.139167694E1,2.650391459E-1,-1.703550518E-1,-1.603521290E-3
9.149167694E1,-3.989713490E-1,-1.220966876E-1,-4.707480371E-1
9.159167761E1,-3.922518492E-1,1.167516187E-1,-3.833943009E-1
9.169167761E1,-2.981785834E-1,-7.322747260E-2,-2.355649173E-1
9.179167761E1,1.837940812E-1,1.680642962E-1,-6.024658307E-2
9.189167761E1,3.542254865E-1,3.916409910E-1,8.819366992E-2
9.199167764E1,-9.292787313E-2,4.466952011E-2,1.248455867E-1
9.209167757E1,-9.476047009E-2,-5.325981379E-1,7.108944654E-2
9.219167757E1,-1.008691266E-1,1.229366288E-2,2.311361432E-1
9.229167754E1,3.779728711E-2,2.034944892E-1,3.239876628E-1
9.239167754E1,-1.301906556E-1,-1.519527286E-2,-2.661081851E-1
9.249167754E1,-1.033125818E-1,3.372739851E-1,-1.940260679E-1
9.259167777E1,-3.055089712E-1,-2.729803920E-1,-1.604284793E-1
9.269167754E1,5.856670439E-2,-8.910996467E-2,-1.433242559E-1
9.279167754E1,2.607631087E-1,-2.302198410E-1,-1.133918613E-1
9.289167747E1,2.858085632E-1,-5.062545836E-2,7.353290170E-2
9.299167747E1,-1.411862224E-1,2.486985177E-1,-8.323038928E-3
9.309167724E1,-2.254856378E-1,-3.120757937E-1,1.682170182E-1
9.319167724E1,-2.804635167E-1,-2.069306001E-2,2.531272769E-1
9.329167720E1,1.795180291E-1,-7.254024968E-3,2.030363381E-1
9.339167720E1,2.735912800E-1,3.195588887E-1,-1.201113760E-1
9.349167730E1,3.316234648E-1,1.167516187E-1,1.498910636E-1
9.359167730E1,-8.620835841E-2,-3.939317167E-1,1.395063549E-1
9.369167730E1,1.208749637E-1,6.849326193E-2,-3.947716579E-2
9.379167730E1,1.990657151E-1,2.926808000E-1,-2.214386594E-3
9.389167734E1,2.693152130E-1,2.578614950E-1,9.185886383E-2
9.399167734E1,-5.574145354E-3,8.376489580E-2,3.985132277E-1
9.409135997E1,-2.822960913E-1,-2.888629138E-1,1.156826094E-1
9.419135997E1,-2.670244575E-1,-2.924517356E-2,1.419498175E-1
9.429136004E1,1.367574632E-1,-1.721876413E-1,1.388954818E-1
9.439136004E1,2.253329158E-1,-1.141554415E-1,-2.664899640E-2
9.449136004E1,-5.394703746E-1,-1.563051492E-1,-2.618321180E-1
9.459135920E1,-2.303725630E-1,4.496731758E-1,8.880453557E-2
9.469135920E1,-2.297616899E-1,3.085633218E-1,-1.543198377E-1
9.479135920E1,3.957643211E-1,1.308015138E-1,3.871358559E-2
9.489135920E1,4.134794176E-1,1.570687294E-1,2.024254650E-1
9.499135917E1,3.841578662E-1,7.007387877E-1,5.603924990E-1
9.509135917E1,-1.473712362E-2,3.000875562E-2,3.227659166E-1
9.519135914E1,-3.329979181E-1,3.348305225E-1,5.115996581E-3
9.529135917E1,1.098793894E-1,-1.330922693E-1,1.798234582E-1
9.539135917E1,3.517820239E-1,8.009970188E-2,1.977676153E-2
9.549135920E1,2.619848251E-1,2.548071742E-1,2.290744742E-4
9.559135920E1,4.573853686E-2,-1.483639032E-1,8.758280426E-2
9.569135920E1,-2.706896663E-1,-5.490151420E-2,-1.946369410E-1
9.579135920E1,9.644035250E-2,7.765624672E-2,-4.925100878E-2
9.589135920E1,2.027309090E-1,-6.345362961E-2,-3.520110995E-2
9.599135920E1,2.118938863E-1,2.377029359E-1,5.948300287E-2
9.609135920E1,-1.595121920E-1,4.851033688E-1,5.726861767E-3
9.619135920E1,-2.810743749E-1,-4.085161164E-2,9.430231899E-2
9.629135923E1,1.618029326E-1,1.908953884E-3,3.490331173E-1
9.639135923E1,2.167807966E-1,-3.688862622E-1,4.054617882E-2
9.649135913E1,2.977967961E-3,1.908953884E-3,-2.752711475E-1
9.659135980E1,-5.028184652E-1,-2.632065713E-1,-5.886450410E-1
9.669135977E1,-7.887033820E-1,4.203516543E-1,-4.573090076E-1
9.679135977E1,3.168863431E-2,-5.367978290E-2,-2.325105816E-1
9.689135977E1,2.253329158E-1,-1.080467924E-1,-2.990948856E-1
9.699135977E1,2.662608922E-1,3.110067546E-1,4.543310404E-2
9.709135977E1,-6.023895144E-1,-3.481168449E-1,-3.785073757E-1
9.719135977E1,-2.560288906E-1,-3.731622994E-1,1.419498175E-1
9.729135967E1,-1.143081561E-1,-2.424371392E-1,3.184898794E-1
9.739135967E1,1.899027377E-1,-2.845868468E-1,1.700496078E-1
9.749135967E1,2.271655202E-1,9.292787313E-2,-9.323330969E-2
9.759135960E1,-3.079524338E-1,-2.021200359E-1,-3.485749662E-1
9.769135960E1,-1.753946841E-1,9.842566401E-2,-1.567633003E-1
9.779135960E1,-9.964739531E-2,8.804095536E-2,-1.787544489E-1
9.789135967E1,1.428661048E-1,1.802816093E-1,3.443752974E-2
9.799135966E1,3.481168449E-1,5.223661661E-1,2.543490231E-1
9.809135967E1,-2.994003296E-1,9.598220140E-2,3.894265974E-3
9.819135970E1,-1.906663179E-1,-4.660138190E-1,3.630830348E-1
9.829135966E1,-3.843106031E-1,1.436296850E-1,8.575020730E-2
9.839135966E1,6.834054738E-2,1.412625890E-2,8.758280426E-2
9.849135963E1,1.911244690E-1,2.236530334E-1,6.681338698E-2
9.859135963E1,2.748129964E-1,6.185010541E-3,2.427425832E-1
9.869135963E1,-1.851685345E-1,-5.380959511E-1,-2.294562608E-1
9.879135963E1,-3.769802153E-1,1.717294902E-1,-3.174208403E-1
9.889135963E1,4.110359550E-1,3.421608806E-1,4.543310404E-2
9.899135963E1,4.018729627E-1,-4.329507425E-2,-1.940260679E-1
9.909135963E1,3.157409728E-1,3.830888569E-1,2.574033439E-1
9.919135963E1,-4.423427880E-1,2.939025462E-1,-1.524872333E-1
9.929135960E1,-9.231700748E-2,-2.344958931E-1,2.647337317E-1
9.939135960E1,3.969860375E-1,-1.782962978E-1,4.712061882E-1
9.949132626E1,2.986367345E-1,-3.304017484E-1,1.916589774E-2
9.959129226E1,6.895141304E-2,1.124755666E-1,-1.555415690E-1
9.969125896E1,-2.077705413E-1,2.315942794E-1,-3.302490115E-1
9.979122563E1,-5.535202622E-1,2.645809948E-1,-1.225548387E-1
9.989119229E1,2.313652076E-2,1.332449764E-1,2.290744742E-4
9.999115896E1,2.583196461E-1,3.000875562E-2,-8.956811577E-2
1.000911256E2,1.379791945E-1,1.839468032E-1,7.964155823E-2
1.001910923E2,-1.821141988E-1,-8.239044994E-2,-1.439351290E-1
1.002910590E2,-7.460191846E-2,-3.340669274E-1,2.054798007E-1
1.003910256E2,-2.084577642E-2,-1.856266707E-1,2.958878577E-1
1.004909923E2,1.111011133E-1,-3.438407779E-1,5.115996581E-3
1.005909592E2,1.972331107E-1,-4.403574765E-1,-2.007455975E-1
1.006909259E2,-4.533383846E-1,-2.613739669E-1,-6.515641212E-1
1.007908925E2,-6.646977663E-1,6.378196478E-1,-3.510184288E-1
1.008908591E2,4.146247730E-2,-2.130392566E-2,-1.335504204E-1
1.009908258E2,2.435825206E-2,3.741549561E-3,-3.656792045E-1
1.010907926E2,-1.417970955E-1,6.787476540E-1,4.115704447E-2
1.011900255E2,-2.822960913E-1,-2.247220576E-1,-7.857254148E-2
1.012899923E2,-2.352594733E-1,-8.905651569E-1,-1.072832122E-1
1.013899590E2,3.413209692E-2,-3.401755691E-1,1.553888470E-1
1.014899257E2,2.344958931E-1,-4.990005493E-1,-8.323038928E-3
1.015898924E2,3.255148232E-1,5.627596006E-2,-6.513350457E-2
1.016898590E2,5.014439821E-1,3.287218511E-1,6.925684959E-2
1.017898257E2,-2.499202490E-1,-4.678464234E-1,-5.780312419E-2
1.018897924E2,-3.306308016E-2,-4.757113010E-2,4.909829423E-2
1.019897590E2,2.546544373E-1,1.992184222E-1,3.749185428E-2
1.020897257E2,-6.811910868E-1,1.565724015E0,-1.659262776E-1
1.021896923E2,5.306891724E-2,2.034944892E-1,4.663192630E-1
1.022896590E2,2.534327209E-1,-6.278930902E-1,6.526331306E-1
1.023896257E2,2.436588705E-1,7.643451542E-2,4.180608988E-1
1.024896257E2,1.141554415E-1,-2.876411676E-1,7.475463301E-2
1.025895924E2,3.077997267E-1,4.711298272E-2,5.337435007E-2
1.026895590E2,3.255148232E-1,-1.288162023E-1,6.803511828E-2
1.027895257E2,-2.309834212E-1,-1.398117840E-1,7.658722997E-2
1.028894925E2,-1.595885493E-2,8.437576145E-2,5.276348442E-2
1.029894592E2,9.277515858E-2,2.370920777E-1,-1.414916664E-1
1.030894258E2,1.593594700E-1,1.289689243E-1,3.565925732E-2
1.031893925E2,-2.499202490E-1,9.170614183E-2,1.230129898E-1
1.032893602E2,-1.711186320E-1,-5.887977481E-1,2.830596864E-1
1.033893268E2,-1.973858327E-1,1.735620946E-1,3.321579844E-2
1.034892935E2,2.784782052E-1,-1.275181212E-2,2.971095741E-1
1.035892605E2,5.099961162E-1,-2.430480123E-1,-7.185302675E-2
1.036892273E2,4.379140139E-1,4.833471403E-2,1.305724494E-2
1.037891939E2,-3.635411859E-1,1.283580661E-1,-2.697733641E-1
1.038891615E2,1.641700417E-2,9.048441797E-2,2.653445899E-1
1.039891281E2,1.245401502E-1,2.664135993E-1,8.086328954E-2
1.040890947E2,3.102431893E-1,4.618904889E-1,1.364520192E-1
1.041889881E2,2.381610870E-1,4.502840340E-1,7.528150678E-1
1.042889546E2,6.467536092E-2,3.550654277E-2,4.198935032E-1
1.043889212E2,-3.201697469E-1,1.298088697E-3,9.063713253E-2
1.044888879E2,1.495856196E-1,-2.534327209E-1,6.314819306E-2
1.045888545E2,1.361465901E-1,-1.111011133E-1,-4.004985392E-1
1.046888212E2,-2.670244575E-1,1.253037304E-1,-2.771037519E-1
1.047887879E2,-2.389246672E-1,3.238349259E-1,-7.551821321E-2
1.048887545E2,1.416443735E-1,2.957351506E-1,4.822017550E-1
1.049887212E2,1.300379336E-1,1.417970955E-1,-1.931861416E-2
1.050886879E2,-8.315403014E-2,-9.094256163E-2,-4.823544621E-1
1.051886546E2,1.428661048E-1,2.756529488E-2,2.290744742E-4
1.052886212E2,1.147663072E-1,2.016618848E-1,4.665483162E-2
1.053885879E2,-4.881576896E-1,-4.134794176E-1,5.093089119E-2
1.054885545E2,1.782962978E-1,-1.538616866E-1,5.017494559E-1
1.055885543E2,-2.572506368E-1,-3.585015535E-1,-3.717878461E-1
1.056885544E2,1.294270754E-1,4.423427880E-1,-4.200462103E-1
1.057885544E2,-3.824779987E-1,-3.352886736E-1,-9.264535308E-1
1.058885543E2,-3.000875562E-2,4.352414981E-3,-1.078940704E-1
1.059885543E2,-4.352414981E-3,1.753946841E-1,-1.225548387E-1
1.060885543E2,5.612324551E-2,2.010510266E-1,-1.958586723E-1
1.061885543E2,-1.326341182E-1,1.326341182E-1,-3.357468247E-1
1.062885533E2,-6.958518624E-1,8.009970188E-2,-4.725806117E-1
1.063885533E2,-2.634356357E-2,-3.481168449E-1,2.598468065E-1
1.064885533E2,3.840815276E-2,-2.711478174E-1,1.419498175E-1
1.065885530E2,3.591124117E-1,-1.618029326E-1,1.028544381E-1
1.066885529E2,2.173916698E-1,3.917173296E-2,-1.561524272E-1
1.067885529E2,-3.220023513E-1,-2.088395506E-1,-3.730095923E-1
1.068885520E2,-3.898083866E-1,2.236530334E-1,-3.241403699E-1
1.069885520E2,-1.314123869E-1,9.170614183E-2,-2.251801938E-1
1.070885520E2,1.465312988E-1,-4.085161164E-2,-1.891391575E-1
1.071885520E2,2.705369592E-1,1.931097806E-1,6.253732741E-2
1.072885520E2,-4.001930952E-1,-3.444516361E-1,-6.513350457E-2
1.073885520E2,-2.529745698E-1,-3.615558743E-1,-7.368562371E-2
1.074885520E2,-2.230421752E-1,-6.895141304E-2,8.452847600E-2
1.075885520E2,2.595413625E-1,-3.310126066E-1,7.475463301E-2
1.076885520E2,3.420081735E-1,-2.668717504E-1,-2.178498209E-1
1.077885521E2,-6.390414238E-1,-4.751768112E-1,-6.595053673E-1
1.078885521E2,-3.653737605E-1,8.315403014E-2,-2.380083650E-1
1.079885521E2,1.458440814E-2,4.100432992E-2,-3.031418845E-2
1.080885521E2,9.582948685E-2,-2.008219436E-2,-2.581669390E-1
1.081885521E2,5.026657581E-1,1.234711409E-1,8.941540122E-2
1.082885521E2,-3.256675303E-1,-7.444920391E-2,-9.078984708E-2
1.083885521E2,-1.753946841E-1,-6.285039783E-1,2.683989108E-1
1.084885521E2,-1.417970955E-1,2.756529488E-2,3.032182455E-1
1.085885521E2,1.263727546E-1,-7.261660695E-2,-5.474879593E-2
1.086885520E2,1.850158125E-1,-3.840815276E-2,-2.233476043E-1
1.087885520E2,-4.056908786E-1,-4.611268938E-1,-6.265186667E-1
1.088885521E2,2.790890634E-1,-7.879397869E-1,-4.200462103E-1
1.089885521E2,-8.437576145E-2,4.136321247E-1,4.505131394E-3
1.090885521E2,-3.306308016E-2,6.872233935E-4,-1.335504204E-1
1.091885521E2,1.501964927E-1,3.140611053E-1,-3.825543448E-2
1.092885521E2,-9.537133574E-2,1.027017161E-1,4.455498457E-1
1.093885521E2,-2.022727579E-1,-4.452444017E-1,2.561815977E-1
1.094885521E2,-2.315942794E-1,-9.705121815E-2,-3.459024429E-2
1.095885521E2,-1.351539325E-2,9.109527618E-2,3.007747829E-1
1.096885521E2,2.680171281E-2,2.511419654E-1,-3.275764734E-2
1.097885521E2,3.957643211E-1,-1.752419621E-1,1.908190250E-1
1.098885521E2,-4.557818174E-1,-2.320524305E-1,-3.180317283E-1
1.099885521E2,-3.299435973E-1,6.177374721E-2,-3.644574881E-1
1.100885521E2,2.961932719E-1,-8.475755341E-3,-2.838232517E-1
1.101885521E2,3.688862622E-1,3.794236779E-1,-2.542726509E-2
1.102885521E2,3.261256814E-1,6.653085947E-1,8.279514909E-1
1.103885521E2,-2.981785834E-1,-4.843397737E-1,2.971095741E-1
1.104885521E2,-2.517528534E-1,2.083813995E-1,1.706604809E-1
1.105885521E2,-6.482807547E-2,1.253037304E-1,1.834886521E-1
1.106885520E2,3.701079786E-1,1.473712362E-2,7.719809562E-2
1.107885520E2,3.059671223E-1,1.515709460E-1,8.269587904E-2
1.108885520E2,-1.943315119E-1,-1.721876413E-1,-1.931861416E-2
1.109885520E2,-1.375210434E-1,1.057560444E-1,9.857837856E-2
1.110885529E2,1.025490016E-1,2.273182273E-1,6.131559983E-2
1.111885529E2,3.145192564E-1,4.963280167E-3,4.543310404E-2
1.112885532E2,2.742021382E-1,5.400812626E-1,3.465896547E-1
1.113885532E2,-1.473712362E-2,3.067307174E-1,1.498910636E-1
1.114885540E2,-6.177374721E-2,2.774091661E-1,5.642867833E-2
1.115885543E2,1.373683214E-1,-5.734497309E-2,2.855031490E-1
1.116885543E2,7.750352472E-2,-1.905135959E-1,5.215261877E-2
1.117885543E2,-7.635815564E-5,2.835178375E-1,-6.391177326E-2
1.118885542E2,-2.138791978E-1,-4.916701615E-1,4.421137273E-2
1.119885542E2,-1.149190217E-1,2.083813995E-1,-2.848159149E-2
1.120885542E2,4.269184470E-1,2.175443918E-1,4.505131394E-3
1.121885542E2,4.709007442E-1,2.438115925E-1,1.101848185E-1
1.122885542E2,7.506006956E-2,2.273182273E-1,2.384665161E-1
1.123885542E2,-7.765624672E-2,2.792417705E-1,1.743256748E-1
1.124885542E2,-5.932264924E-1,-1.483639032E-1,-1.695914567E-1
1.125885542E2,2.070069611E-1,-2.076178193E-1,1.706604809E-1
1.126885542E2,2.803107798E-1,-2.155590802E-1,-1.476003081E-1
1.127885542E2,1.996765733E-1,1.509600729E-1,-3.214678168E-2
1.128885542E2,1.202640980E-1,-1.147663072E-1,-4.680754989E-2
1.129885542E2,-6.659194827E-1,3.232240677E-1,-3.693444133E-1
1.130885542E2,1.721876413E-1,4.918228686E-1,1.028544381E-1
1.131885542E2,3.957643211E-1,-3.718642145E-2,2.244166136E-1
1.132885541E2,2.985603921E-2,3.306308016E-2,9.369145334E-2
1.133885541E2,-5.871942267E-2,-2.393828183E-1,1.834886521E-1
1.134885541E2,-3.439934850E-1,-3.328452110E-1,-1.414916664E-1
1.135885541E2,1.159880385E-1,-2.198351324E-1,-6.490443368E-3
1.136885542E2,2.216677219E-1,-3.224605024E-1,3.871358559E-2
1.137885542E2,3.779728711E-2,-1.763873361E-2,-5.268712528E-3
1.138885542E2,-7.025713921E-1,-1.410335153E-1,-4.744132161E-1
1.139885542E2,-6.579782367E-1,1.698969007E-1,-2.777146101E-1
1.140885534E2,1.947133057E-2,7.582364976E-2,-1.259909570E-2
1.141886292E2,7.261660695E-2,1.033125818E-1,-6.940956414E-2
1.142886289E2,3.096323311E-1,1.656208336E-1,1.492801905E-1
1.143886289E2,-3.110067546E-1,1.204168126E-1,-3.546836376E-1
1.144886281E2,-4.650211707E-2,-7.415140271E-1,1.217912585E-1
1.145886281E2,-5.749769136E-2,-3.450624943E-1,2.500729561E-1
1.146886281E2,1.392009109E-1,-3.572798073E-1,5.032002553E-2
1.147886281E2,1.978439838E-1,-1.575268805E-1,1.794416644E-2
1.148886284E2,-7.966446280E-1,-5.539784431E-1,-6.069709659E-1
1.149886283E2,-2.694679201E-1,1.179733500E-1,-1.335504204E-1
1.150886283E2,2.180025280E-1,-8.483391255E-2,1.535562575E-1
1.151886283E2,-5.077817291E-2,5.138903856E-2,-3.827834427E-1
1.152886283E2,-2.451096848E-2,1.344667077E-1,-2.209041417E-1
1.153886283E2,-3.843106031E-1,-3.389538527E-1,-2.080759704E-1
1.154886283E2,-1.729512215E-1,-2.632065713E-1,8.819366992E-2
1.155886283E2,6.039930135E-2,-7.078400999E-2,1.156826094E-1
1.156886284E2,2.008983046E-1,-1.581377387E-1,1.743256748E-1
1.157886284E2,3.456733823E-1,-1.056033298E-1,-3.520110995E-2
1.158886284E2,4.810563754E-3,4.963280167E-3,-8.223773539E-2
1.159886284E2,-2.890156209E-1,-1.178206354E-1,-9.262244403E-2
1.160886284E2,-2.383138090E-1,-3.657555580E-2,-1.198823005E-2
1.161886284E2,7.139487565E-2,2.914590836E-1,1.004109755E-1
1.162886284E2,5.197699666E-1,1.741729528E-1,3.789655268E-1
1.163886284E2,2.057852298E-1,1.955532432E-1,6.984480619E-1
1.164886284E2,-1.411862224E-1,-3.432299197E-1,8.330674469E-2
1.165886284E2,-2.810743749E-1,-9.033169597E-2,-1.879174262E-1
1.166886284E2,2.925280929E-1,-1.495856196E-1,2.848922908E-1
1.167886284E2,2.137264758E-1,1.295797974E-1,1.028544381E-1
1.168886284E2,2.393828183E-1,1.986075640E-1,5.765040591E-2
1.169886284E2,-2.175443918E-1,-3.029128015E-1,-1.115592644E-1
1.170886283E2,-1.149190217E-1,-5.123632401E-2,-1.451568604E-1
1.171886283E2,2.485457957E-1,1.766164154E-1,-3.214678168E-2
1.172886283E2,5.002222657E-1,1.833359301E-1,2.745075822E-1
1.173886283E2,3.279582858E-1,7.245625257E-1,5.408447981E-1
1.174886282E2,1.056033298E-1,2.756529488E-2,3.753003478E-1
1.175886282E2,-1.943315119E-1,2.786309123E-1,1.132391468E-1
1.176886282E2,4.696026444E-2,-2.271655202E-1,2.879466116E-1
1.177886282E2,2.534327209E-1,-1.410335153E-1,1.120174155E-1
1.178886280E2,2.222785950E-1,1.607339233E-1,1.657735556E-1
1.179886280E2,1.440878361E-1,-1.756237587E-3,1.260673106E-1
1.180886280E2,-2.590832114E-1,4.887685478E-1,-2.789363563E-1
1.181886280E2,2.534327209E-1,3.978259861E-2,7.903069258E-2
1.182886280E2,3.884339333E-1,7.643451542E-2,9.980010986E-2
1.183886280E2,5.612324551E-2,-1.336267684E-2,1.700496078E-1
1.184886280E2,-1.839468032E-1,4.405865446E-2,-7.307475805E-2
1.185886280E2,-4.893794060E-1,-1.208749637E-1,-5.413793400E-2
1.186886280E2,-7.032585889E-2,-6.528622657E-2,1.566105783E-1
1.187886280E2,2.057852298E-1,-1.685224473E-1,4.054617882E-2
1.188886280E2,1.837940812E-1,-3.358995318E-1,-1.292743534E-1
1.189886271E2,-3.910301030E-1,-5.734497309E-2,-6.686683893E-1
1.190886271E2,-3.928627074E-1,4.105778039E-1,-5.238932967E-1
1.191886271E2,6.039930135E-2,2.695442922E-2,1.370628923E-1
1.192886271E2,-5.322163552E-2,-8.300131559E-2,-6.818783283E-2
1.193886271E2,-4.582252800E-1,5.858961344E-1,4.787656292E-2
1.194886271E2,-3.067307174E-1,-7.506006956E-2,-1.775327176E-1
1.195886269E2,-4.117995203E-1,-1.214858219E-1,-6.879869848E-2
1.196886269E2,-1.436296850E-1,-3.585015535E-1,-3.947716579E-2
1.197886269E2,2.968041599E-1,-3.535382450E-2,-2.787072770E-2
1.198886269E2,2.393828183E-1,-2.662608922E-1,-3.070361316E-1
1.199886269E2,-9.805150628E-1,-7.036404014E-1,-9.551641941E-1
1.200886269E2,-5.022075772E-1,4.352414981E-3,-1.824196279E-1
1.201886269E2,-3.611740842E-2,3.281109929E-1,1.810451895E-1
1.202885936E2,1.135445759E-1,8.017606102E-3,-1.390482038E-1
1.203885602E2,1.446987092E-1,1.271363348E-1,-6.207918003E-2
1.204885269E2,-3.030655086E-1,-3.035236597E-1,-2.490039468E-1
1.205884935E2,8.788824081E-2,-1.178206354E-1,1.865429729E-1
1.206884602E2,-2.267837152E-2,7.765624672E-2,2.476294935E-1
1.207884269E2,2.173916698E-1,-2.467132062E-1,2.928335369E-1
1.208883935E2,-1.185842156E-1,-2.558761835E-1,-6.100252867E-1
1.209883602E2,2.302198410E-1,-4.818963110E-1,-3.131448030E-1
1.210883269E2,-5.932264924E-1,1.298088697E-3,-5.672647357E-1
1.211874988E2,2.070069611E-1,9.239336476E-3,3.991240859E-1
1.212874654E2,2.210568637E-1,-1.147663072E-1,-4.046982154E-3
1.213874321E2,4.085924923E-1,1.790598780E-1,9.980010986E-2
1.214873987E2,1.550834179E-1,-9.460775554E-2,4.027892649E-1
1.215873654E2,-1.845576614E-1,-2.986367345E-1,2.344195358E-2
1.216873320E2,-2.517528534E-1,1.301906556E-1,1.572214365E-1
1.217872987E2,1.269836128E-1,-1.269836128E-1,3.453679383E-1
1.218872657E2,3.157409728E-1,1.540143937E-1,7.047858089E-2
1.219872333E2,2.858085632E-1,-1.037707329E-1,-6.757696718E-2
1.220872000E2,-2.932916880E-1,-5.032765865E-1,-1.201113760E-1
1.221871667E2,-2.132683247E-1,1.955532432E-1,-1.219439730E-1
1.222871333E2,1.092685238E-1,-7.628180087E-2,4.726569727E-2
1.223871000E2,1.520290822E-1,2.493093759E-1,8.513934165E-2
1.224870667E2,4.745659232E-1,3.213914633E-1,6.630178690E-1
1.225870333E2,1.874592751E-1,2.566397488E-1,4.534910917E-1
1.226870000E2,-4.215733707E-1,9.903652966E-2,-1.036180183E-1
1.227869666E2,1.184315011E-1,-1.978439838E-1,3.148246706E-1
1.228869333E2,2.112830132E-1,3.123048507E-2,-9.926559869E-4
1.229869000E2,4.617377818E-1,1.656972058E-2,1.523345262E-1
1.230868666E2,1.257618815E-1,-3.588833380E-3,-1.683697402E-1
1.231868333E2,-3.580434024E-1,3.250566721E-1,-4.328743815E-1
1.232868333E2,-4.955644161E-2,1.198059469E-1,-9.201157838E-2
1.233868333E2,2.968041599E-1,4.039346427E-2,7.597636431E-2
1.234868333E2,3.016910851E-1,1.718058437E-2,2.549598813E-1
1.235868339E2,5.345070967E-4,9.239336476E-3,2.293035388E-1
1.236868339E2,-5.761222839E-1,1.741729528E-1,-1.573741585E-1
1.237868339E2,-6.299547851E-2,-1.275944710E-1,1.193477958E-1
1.238868339E2,-9.850202128E-3,-1.641700417E-2,-2.105194330E-1
1.239868339E2,7.964919209E-1,3.917173296E-2,-1.958586723E-1
1.240868339E2,2.674826086E-1,-6.877579093E-1,-6.747770309E-1
1.241875087E2,-4.246276915E-1,1.088103727E-1,-3.027600944E-1
1.242875088E2,-2.083813995E-1,-9.094256163E-2,-8.407033235E-2
1.243875088E2,2.015091777E-1,-4.342488348E-1,-6.818783283E-2
1.244875089E2,6.895141304E-2,7.460191846E-2,8.170322515E-3
1.245875095E2,-4.209625125E-1,-5.734497309E-2,-2.691625059E-1
1.246875095E2,-2.694679201E-1,-9.155342728E-2,7.170030475E-2
1.247875095E2,-3.672827408E-2,-1.404226422E-1,2.268600762E-1
1.248875092E2,3.896556795E-1,-1.605812013E-1,1.553888470E-1
1.249875092E2,-3.856086731E-2,-2.656500340E-1,-2.294562608E-1
1.250875091E2,-3.531564772E-1,-2.913063765E-1,-4.310417771E-1
1.251875091E2,-2.804635167E-1,1.515709460E-1,-7.857254148E-2
1.252875093E2,1.519527286E-2,1.375210434E-1,8.025242388E-2
1.253875093E2,1.343140006E-1,-1.068250611E-1,-2.190715522E-1
1.254875093E2,8.910996467E-2,2.151009291E-1,1.187369302E-1
1.255875095E2,3.596469015E-2,1.008691266E-1,3.331506252E-1
1.256875095E2,-1.118647009E-1,-3.407864571E-1,2.085341215E-1
1.257875095E2,-2.028836161E-1,2.023491077E-2,3.932445124E-2
1.258875095E2,1.703550518E-1,-2.106721550E-1,3.504839167E-2
1.259875095E2,2.509892583E-1,-1.257618815E-1,-2.848159149E-2
1.260875095E2,-3.184135258E-2,-1.104902476E-1,-1.152244583E-1
1.261875095E2,1.508073509E-1,-1.856266707E-1,5.215261877E-2
1.262875095E2,4.085161164E-2,2.456441820E-1,-2.783254683E-1
1.263875095E2,-9.850202128E-3,-3.046690486E-2,-1.408807933E-1
1.264875095E2,2.497675270E-1,1.448514163E-1,1.480584592E-1
1.265875088E2,2.949715555E-1,1.698969007E-1,3.441462219E-1
1.266875089E2,-3.464369476E-1,2.077705413E-1,-1.097266674E-1
1.267875089E2,-6.116288155E-2,-2.137264758E-1,2.561815977E-1
1.268875089E2,-1.906663179E-1,-2.363284975E-1,2.222022414E-2
1.269875089E2,2.717586756E-1,-8.361218125E-2,3.894265974E-3
1.270875089E2,3.413209692E-2,-8.239044994E-2,-5.116760135E-1
1.271875089E2,-2.658027411E-1,-1.214858219E-1,-4.340961277E-1
1.272875088E2,-2.798526287E-1,-3.633884490E-1,-1.689805984E-1
1.273875088E2,9.086620063E-3,-4.024074972E-2,1.779908538E-1
1.274875090E2,-2.309834212E-1,1.081995070E-1,-1.604284793E-1
1.275875084E2,-5.261076987E-2,1.515709460E-1,1.107956842E-1
1.276875084E2,3.701079786E-1,5.064836740E-1,4.693735838E-1
1.277875084E2,1.086576581E-1,1.344667077E-1,1.718822122E-1
1.278875084E2,-4.069126248E-1,2.633592784E-1,-3.033709526E-1
1.279875084E2,1.178206354E-1,-1.917353272E-1,8.513934165E-2
1.280875084E2,1.453095675E-1,-1.465312988E-1,-4.925100878E-2
1.281875084E2,7.994698733E-2,5.138903856E-2,-2.251801938E-1
1.282875083E2,-1.033125818E-1,-2.583196461E-1,-4.915174544E-1
1.283875083E2,5.429064855E-2,1.857793927E-1,-1.748601720E-2
1.284875083E2,9.033169597E-2,1.399645060E-1,-7.307475805E-2
1.285875080E2,-1.051451787E-1,1.149190217E-1,-1.626428775E-2
1.286875080E2,-4.222606122E-2,1.204168126E-1,2.152536362E-1
1.287875080E2,2.118938863E-1,-4.268420860E-2,1.645518243E-1
1.288875081E2,-9.109527618E-2,-1.031598672E-1,2.038762718E-2
1.289875081E2,-2.451096848E-2,-1.227075532E-1,1.975385547E-1
1.290875081E2,-2.841286957E-1,-8.300131559E-2,-1.048397496E-1
1.291875081E2,-4.894557595E-2,-1.624137908E-1,1.572214365E-1
1.292875081E2,3.047454059E-1,-2.699260712E-1,2.354121953E-1
1.293875081E2,1.141554415E-1,-2.412154078E-1,1.061378326E-2
1.294875081E2,1.343140006E-1,-2.467132062E-1,-2.569451928E-1
1.295875079E2,7.322747260E-2,3.403283060E-1,-1.518763751E-1
1.296875079E2,-1.790598780E-1,3.856086731E-2,-3.119230568E-1
1.297875079E2,-3.550654277E-2,-1.145372284E-3,1.230129898E-1
1.298875079E2,-4.650211707E-2,8.132143319E-2,2.067015320E-1
1.299875079E2,7.383833826E-2,4.344778880E-2,1.718822122E-1
1.300875079E2,5.345070967E-4,8.376489580E-2,7.414376736E-2
1.301875079E2,-7.215845585E-2,-3.229949996E-2,3.504839167E-2
1.302875081E2,-9.903652966E-2,-1.145372284E-3,2.771801129E-2
1.303875081E2,-4.161519557E-2,3.917173296E-2,1.611157134E-2
1.304875078E2,-6.482807547E-2,-1.526399553E-1,-1.866956949E-1
1.305875078E2,1.367574632E-1,-2.130392566E-2,-9.812022746E-2
1.306875078E2,3.168863431E-2,-5.917757004E-2,-1.992947794E-2
1.307875078E2,2.619084716E-2,7.399105281E-2,2.344195358E-2
1.308874745E2,5.490151420E-2,3.061962128E-2,4.543310404E-2
1.309874411E2,-5.627596006E-2,2.390010282E-2,3.321579844E-2
1.310874078E2,4.390593991E-2,-1.458440814E-2,5.398521572E-2
1.311873745E2,2.130392566E-2,3.611740842E-2,4.543310404E-2
1.312873412E2,-2.023491077E-2,9.850202128E-3,1.488984004E-2
1.313873078E2,3.352123126E-2,3.306308016E-2,3.138320148E-2
1.314872745E2,2.985603921E-2,7.635815564E-5,1.733330078E-2
1.315872412E2,-1.901318133E-2,-7.864889689E-3,-6.490443368E-3
1.316872078E2,2.191479132E-2,1.168279815E-2,1.550070569E-2
1.317871745E2,1.947133057E-2,-3.779728711E-2,1.305724494E-2
1.318871412E2,1.886046492E-2,-1.397354249E-2,2.710714564E-2
1.319871078E2,4.810563754E-3,-1.214094646E-2,2.344195358E-2
1.320870744E2,-6.872233935E-4,-6.032294128E-3,2.955060638E-2
1.321870411E2,2.367102774E-3,4.963280167E-3,3.077233583E-2
1.322870077E2,-3.741549561E-3,1.840231568E-2,1.244637929E-2
1.323869744E2,-1.290452853E-2,-3.588833380E-3,-1.015563495E-2
1.324869411E2,3.901901841E-2,1.229366288E-2,-1.504255645E-2
1.325869087E2,5.184718594E-2,3.130684374E-3,-2.359467000E-2
1.326868753E2,2.008219436E-2,-1.145372284E-3,-1.015563495E-2
1.327868420E2,1.145372284E-3,1.351539325E-2,-4.046982154E-3
1.328868087E2,9.086620063E-3,-5.421428941E-3,-9.926559869E-4
1.329867754E2,1.702786796E-2,2.023491077E-2,1.450804994E-3
1.330867420E2,3.168863431E-2,-2.367102774E-3,-8.933904581E-3
1.331867087E2,-1.229366288E-2,-9.086620063E-3,-1.870774850E-2
1.332866751E2,6.643159315E-3,-7.864889689E-3,-1.992947794E-2
1.333866418E2,5.421428941E-3,3.000875562E-2,-4.192062840E-2
1.334866085E2,-2.328923717E-2,8.017606102E-3,-4.008803144E-2
1.335865752E2,-4.352414981E-3,2.519819187E-3,-3.764457256E-2
1.336865418E2,6.643159315E-3,8.628471754E-3,-3.092505224E-2
1.337865085E2,-1.351539325E-2,-1.824959926E-2,2.649627998E-2
1.338865085E2,2.863430791E-2,1.534798928E-2,1.183551457E-2
1.339865085E2,2.924517356E-2,8.017606102E-3,2.466368489E-2
1.340865085E2,7.811439037E-2,1.908953884E-3,1.244637929E-2
1.341860989E2,2.924517356E-2,4.352414981E-3,1.183551457E-2
1.342860989E2,-4.222606122E-2,2.695442922E-2,3.138320148E-2
1.343860989E2,2.863430791E-2,-8.475755341E-3,6.986771524E-2
1.344860989E2,-2.328923717E-2,2.573269792E-2,-1.565342210E-2
1.345860989E2,-6.727153808E-2,1.442405581E-1,-4.802928120E-2
1.346860989E2,-3.306308016E-2,-1.397354249E-2,-6.490443368E-3
1.347860989E2,2.741257846E-2,-5.001459271E-2,-9.544769302E-3
1.348860989E2,4.940372705E-2,-1.886046492E-2,-9.544769302E-3
1.349860989E2,4.146247730E-2,1.412625890E-2,-1.992947794E-2
1.350860991E2,2.924517356E-2,-4.818199575E-2,3.077233583E-2
1.351860991E2,4.268420860E-2,-1.336267684E-2,6.620252132E-2
1.352860991E2,-2.634356357E-2,6.872233935E-4,6.070473418E-2
1.353860990E2,-7.765624672E-2,2.695442922E-2,1.303433776E-1
1.354860990E2,-1.039234474E-1,-1.886046492E-2,4.198935032E-1
1.355860984E2,-1.424079537E-1,1.107193250E-2,8.474991918E-1
1.356860984E2,-4.466952011E-2,-1.062141955E-1,1.363680243E0
1.357860984E2,-2.749657333E-1,1.143081561E-1,1.774792552E0
1.358860984E2,-2.083813995E-1,3.245221451E-2,2.129094362E0
1.359860984E2,-8.743008971E-2,-1.025490016E-1,2.391766548E0
1.360860984E2,-3.184135258E-2,-9.888381511E-2,2.298304081E0
1.361860984E2,1.013272703E-1,-7.444920391E-2,1.871920228E0
1.362860984E2,2.252565511E-2,-9.697485715E-3,1.163927317E0
1.363860984E2,-2.756529488E-2,9.659306705E-2,7.143305540E-1
1.364860984E2,4.024074972E-2,-2.180025280E-1,4.461607039E-1
1.365860985E2,1.336267684E-2,-1.062141955E-1,1.327868253E-1
1.366860985E2,-1.857793927E-1,1.362993121E-1,-7.101308554E-3
1.367860985E2,-1.210276783E-1,-1.098793894E-1,1.305724494E-2
1.368860985E2,-4.283692688E-2,-2.985603921E-2,-1.127809957E-1
1.369860985E2,-9.292787313E-2,-7.017314434E-2,-1.127809957E-1
1.370860985E2,-1.442405581E-1,-7.864889689E-3,-1.640936732E-1
1.371860985E2,1.874592751E-1,-1.764636934E-1,1.456149966E-1
1.372860985E2,-1.326341182E-1,3.184135258E-2,3.321579844E-2
1.373860986E2,-4.056908786E-1,-2.374738641E-2,-1.992947794E-2
1.374860986E2,5.062545836E-2,5.871942267E-2,2.946661115E-1
1.375860988E2,2.369393557E-1,-4.153120220E-1,5.322927237E-1
1.376860988E2,-2.016618848E-1,4.405865446E-2,1.743256748E-1
1.377860988E2,-3.800345361E-1,2.670244575E-1,-4.860196710E-1
1.378860988E2,-2.756529488E-2,6.849326193E-2,-2.832123935E-1
1.379860988E2,9.766208380E-2,2.695442922E-2,-9.689849615E-2
1.380860987E2,1.092685238E-1,-2.882520258E-1,2.219731659E-1
1.381860987E2,3.933208585E-1,-7.506006956E-2,-1.182787865E-1
1.382860987E2,3.365103900E-1,-7.506006956E-2,-7.368562371E-2
1.383860987E2,2.399936765E-1,1.827250719E-1,1.938733608E-1
1.384860987E2,-3.922518492E-1,2.816852331E-1,-1.671480089E-1
1.385860987E2,1.135445759E-1,-1.355357319E-1,2.121993154E-1
1.386860987E2,2.894737720E-1,-1.984548420E-1,-5.597052723E-2
1.387860987E2,-4.161519557E-2,-2.937498391E-1,-2.764928937E-1
1.388860987E2,1.941787899E-1,1.198059469E-1,-2.337323129E-1
1.389860987E2,-1.479057521E-1,3.531564772E-1,-2.813797891E-1
1.390860987E2,1.031598672E-1,1.253037304E-1,1.855503209E-2
1.391860987E2,1.520290822E-1,-9.827294946E-2,-1.366047412E-1
1.392860987E2,7.750352472E-2,-3.657555580E-2,-2.160172164E-1
1.393860987E2,-1.466840208E-1,-2.913063765E-1,-4.558581859E-2
1.394860987E2,-4.612796307E-1,-5.020548701E-1,-2.054034360E-2
1.395860985E2,-1.888337135E-1,-2.619084716E-2,2.769510448E-1
1.396860985E2,3.969860375E-1,-2.241111845E-1,1.724930704E-1
1.397860985E2,2.344958931E-1,-2.051743716E-1,-2.514474094E-1
1.398860985E2,-4.643339515E-1,-5.894085765E-1,-5.135086179E-1
1.399860985E2,-1.973858327E-1,-2.344958931E-1,-1.274417639E-1
1.400860988E2,-9.964739531E-2,5.688682571E-2,-8.162686974E-2
1.401860988E2,1.874592751E-1,2.573269792E-2,-4.436408728E-2
1.402860988E2,1.819614917E-1,-1.030835137E-2,-1.433242559E-1
1.403860988E2,-2.279291004E-1,-2.435825206E-2,8.513934165E-2
1.404860988E2,-2.493093759E-1,-3.145192564E-1,2.604576647E-1
1.405860988E2,-1.589013189E-1,2.737439871E-1,1.743256748E-1
1.406860987E2,1.501964927E-1,-2.863430791E-2,1.627192348E-1
1.407860987E2,2.924517356E-2,-3.420081735E-1,-2.716059685E-1
1.408860987E2,-2.511419654E-1,3.741549561E-3,-1.207222417E-1
1.409860987E2,-1.179733500E-1,-2.235003263E-1,2.061670180E-3
1.410858624E2,-2.761874497E-1,3.036763966E-1,-3.703370690E-2
1.411858624E2,5.429064855E-2,4.589125142E-2,-8.284860104E-2
1.412858624E2,4.953353703E-1,2.151009291E-1,3.319289088E-1
1.413858625E2,2.351067662E-1,2.328923717E-2,3.993531689E-2
1.414858625E2,2.070069611E-1,-3.835470080E-1,3.081051707E-1
1.415858631E2,-6.573673487E-1,1.430188268E-1,-2.367866337E-1
1.416858631E2,1.495856196E-1,9.598220140E-2,3.417027593E-1
1.417858631E2,2.375502288E-1,2.023491077E-2,1.309542358E-1
1.418858631E2,5.307655334E-1,1.485166103E-1,2.812270820E-1
1.419858631E2,5.001459271E-2,3.067307174E-1,2.653445899E-1
1.420858631E2,-2.688570619E-1,2.816852331E-1,-1.860848218E-1
1.421858631E2,2.625956833E-1,-1.483639032E-1,6.436992437E-2
1.422858632E2,2.381610870E-1,5.749769136E-2,3.443752974E-2
1.423858632E2,1.905135959E-1,3.415500224E-1,9.735664725E-2
1.424858632E2,4.818199575E-2,-8.055785298E-2,1.999820024E-1
1.425858629E2,-3.397174478E-1,-5.795583874E-2,-3.070361316E-1
1.426858629E2,1.563051492E-1,-4.199698567E-3,2.466368489E-2
1.427858629E2,1.575268805E-1,-2.192242593E-1,-1.329395473E-1
1.428858630E2,2.977967961E-3,2.871830165E-1,-3.436116967E-3
1.429858630E2,-2.535854280E-1,2.157117873E-1,-1.928043365E-1
1.430858627E2,-5.657375455E-1,2.780200541E-1,-4.731914997E-1
1.431858627E2,-1.473712362E-2,1.100321040E-1,-7.063129544E-2
1.432858627E2,1.214858219E-1,4.772384837E-2,-7.796167582E-2
1.433858626E2,-9.109527618E-2,-6.711881608E-2,-8.284860104E-2
1.434858627E2,-2.334268838E-1,-1.141554415E-1,-1.414916664E-1
1.435858627E2,-2.260964960E-1,-1.501964927E-1,5.642867833E-2
1.436858628E2,-1.393536329E-1,-1.844049394E-1,4.909829423E-2
1.437858628E2,-7.635815564E-5,-1.764636934E-1,8.575020730E-2
1.438858628E2,-1.766164154E-1,-1.514182240E-1,-2.343431860E-1
1.439858628E2,-5.443572998E-1,-2.485457957E-1,-3.369685411E-1
1.440858628E2,-6.689738035E-1,3.678172231E-1,-2.239584774E-1
1.441858628E2,-1.246928647E-1,3.428481147E-2,-8.834638447E-2
1.442858628E2,2.821433842E-1,-1.269836128E-1,5.337435007E-2
1.443857231E2,4.214206636E-1,4.405865446E-2,9.124799818E-2
1.444857232E2,-3.183371425E-1,-4.861723781E-1,-4.130976275E-2
1.445857230E2,1.282053441E-1,-4.250858426E-1,2.250274867E-1
1.446857230E2,4.268420860E-2,-6.528622657E-2,6.131559983E-2
1.447857230E2,8.849909902E-2,-2.406045496E-1,1.162934676E-1
1.448857230E2,1.911244690E-1,-6.345362961E-2,4.421137273E-2
1.449857230E2,1.844049394E-1,1.815033406E-1,-4.925100878E-2
1.450857230E2,-4.954880774E-1,-6.162103266E-2,-2.984840274E-1
1.451857230E2,-5.107597113E-1,1.179733500E-1,-2.343431860E-1
1.452857229E2,3.664427996E-1,-2.069306001E-2,-2.664899640E-2
1.453857230E2,3.853796124E-1,-2.069306001E-2,8.208502084E-2
1.454857230E2,7.261660695E-2,2.047162205E-1,3.911828399E-1
1.455857229E2,-4.352414981E-3,-4.018729627E-1,4.773148298E-1
1.456857229E2,-9.414960444E-2,-2.924517356E-2,1.101848185E-1
1.457857229E2,3.499494195E-1,-7.383833826E-2,1.443932652E-1
1.458857229E2,3.945426047E-1,4.344778880E-2,-4.864014685E-2
1.459857229E2,6.920339465E-1,-4.879286140E-2,2.647337317E-1
1.460857229E2,-2.573269792E-2,-3.157409728E-1,2.555707395E-1
1.461857229E2,-3.788128197E-1,-2.424371392E-1,-2.318997234E-1
1.462857229E2,1.758528352E-1,9.659306705E-2,-6.574437022E-2
1.463857229E2,3.731622994E-1,3.678172231E-1,2.286926806E-1
1.464857229E2,2.271655202E-1,5.767331719E-1,3.472005427E-1
1.465857236E2,-3.123048507E-2,2.560288906E-1,1.517236531E-1
1.466857234E2,-5.217552781E-1,-3.229949996E-2,-6.391177326E-2
1.467857234E2,1.111011133E-1,-1.330922693E-1,1.492801905E-1
1.468857234E2,3.352123126E-2,7.338018715E-2,-3.764457256E-2
1.469857234E2,3.901901841E-2,1.081995070E-1,4.505131394E-3
1.470857234E2,1.343140006E-1,1.369101703E-1,1.114065498E-1
1.471857234E2,-5.516876578E-1,2.871830165E-1,-3.125339448E-1
1.472857235E2,1.434769779E-1,1.497383416E-1,1.366810966E-2
1.473857235E2,8.788824081E-2,3.733913973E-2,-1.628719419E-1
1.474857234E2,2.308306992E-1,5.144249201E-1,2.183079720E-1
1.475857236E2,-1.344667077E-1,1.204168126E-1,6.948592141E-3
1.476857236E2,-3.384957016E-1,3.428481147E-2,1.052978933E-1
1.477857236E2,1.721876413E-1,-1.062141955E-1,2.586250603E-1
1.478857236E2,2.454914749E-1,-2.496911772E-2,-4.986187443E-2
1.479857236E2,-4.161519557E-2,6.910412759E-2,-3.223077655E-1
1.480857236E2,2.406045496E-1,-9.086620063E-3,-8.162686974E-2
1.481857236E2,-4.203516543E-1,2.102140039E-1,-1.897500157E-1
1.482857236E2,1.397354249E-2,9.964739531E-2,-2.848159149E-2
1.483857236E2,2.357176244E-1,-5.421428941E-3,-4.192062840E-2
1.484857236E2,-5.871942267E-2,1.240820065E-1,-2.239584774E-1
1.485857236E2,-3.122285008E-1,1.790598780E-1,-5.963572115E-2
1.486857236E2,-4.087451994E-1,-1.080467924E-1,1.468367279E-1
1.487857236E2,-1.234711409E-1,-3.591124117E-1,6.009386852E-2
1.488857236E2,1.098793894E-1,-2.546544373E-1,-8.773551881E-2
1.489857236E2,-1.375210434E-1,-2.570978999E-1,-2.441170216E-1
1.490857236E2,-1.259146035E-1,-1.905135959E-1,-2.257910669E-1
1.491857236E2,-4.857142270E-1,1.967749745E-1,-3.858377635E-1
1.492857236E2,-9.781479836E-2,-4.818199575E-2,-5.108360574E-2
1.493857236E2,1.147663072E-1,-2.699260712E-1,-4.731914997E-1
1.494857236E2,1.324813962E-1,1.454622895E-1,-6.207918003E-2
1.495857227E2,-1.473712362E-2,3.130684374E-3,-1.445459872E-1
1.496857227E2,-4.411210716E-1,-1.642463952E-1,7.780896127E-2
1.497857227E2,-1.503492147E-1,-2.296089679E-1,2.283108793E-2
1.498857227E2,3.023019433E-1,-2.540435791E-1,6.070473418E-2
1.499857227E2,-4.100432992E-2,-2.167807966E-1,-4.554764032E-1
1.500857227E2,-3.971387744E-1,1.143081561E-1,-4.182136059E-1
1.501857227E2,-3.580434024E-1,2.957351506E-1,-9.201157838E-2
1.502857227E2,-4.466952011E-2,4.466952011E-2,-1.072832122E-1
1.503857227E2,3.505602777E-1,-3.475059569E-1,-1.382082608E-2
1.504857227E2,1.459204406E-1,-3.962988406E-2,-2.019673288E-1
1.505857218E2,-5.437464118E-1,-3.560580909E-1,-3.064252734E-1
1.506857218E2,-7.765624672E-2,-3.523928821E-1,1.486693323E-1
1.507857218E2,2.977967961E-3,-2.436588705E-1,2.183079720E-1
1.508857218E2,1.025490016E-1,-9.705121815E-2,2.195297033E-1
1.509857218E2,-2.645809948E-1,-2.137264758E-1,-1.549306959E-1
1.510857218E2,-1.796707362E-1,-3.542254865E-1,-1.695914567E-1
1.511857218E2,-1.173624843E-1,3.741549561E-3,9.308059514E-2
1.512856885E2,-1.130864322E-1,2.523637116E-1,-7.490734756E-2
1.513856551E2,5.612324551E-2,3.415500224E-1,-2.221258730E-1
1.514856218E2,3.065779805E-1,-7.017314434E-2,2.567924857E-1
1.515855885E2,-4.447862506E-1,-1.428661048E-1,1.672243699E-2
1.516855552E2,-1.558469981E-1,-4.873940945E-1,2.433534414E-1
1.517855218E2,-1.107193250E-2,1.271363348E-1,1.676061451E-1
1.518854885E2,1.581377387E-1,-5.026657581E-1,1.309542358E-1
1.519854552E2,-7.948884368E-2,2.432007194E-1,-1.433242559E-1
1.520854218E2,3.756057620E-1,-8.727737516E-2,4.237877578E-2
1.521853885E2,1.880701333E-1,1.802816093E-1,-8.284860104E-2
1.522853551E2,-2.114357352E-1,2.573269792E-2,-1.616502106E-1
1.523853218E2,1.062141955E-1,2.615266740E-1,7.597636431E-2
1.524852893E2,4.464661479E-1,2.462550551E-1,4.665483162E-2
1.525852560E2,2.100612819E-1,5.834526420E-1,7.363216877E-1
1.526852227E2,-1.161407530E-1,-7.567093521E-2,3.887393773E-1
1.527851893E2,-5.199226737E-1,-2.496911772E-2,-1.366047412E-1
1.528851560E2,3.224605024E-1,3.550654277E-2,2.720641196E-1
1.529851227E2,4.134794176E-1,2.560288906E-1,1.244637929E-2
1.530850894E2,2.002874464E-1,9.292787313E-2,7.170030475E-2
1.531850560E2,-8.071056753E-2,-3.120757937E-1,-8.323038928E-3
1.532850227E2,-5.577962995E-1,-3.107776865E-2,-3.601814210E-1
1.533849894E2,2.051743716E-1,3.384957016E-1,-4.192062840E-2
1.534849560E2,3.847687542E-1,5.070945024E-1,1.950950921E-1
1.535849227E2,1.734093726E-1,4.789946973E-1,4.565454125E-1
1.536848894E2,-1.198059469E-1,3.152828217E-1,-2.215150148E-1
1.537848560E2,-2.163226604E-1,-1.434769779E-1,8.452847600E-2
1.538848227E2,6.467536092E-2,-2.467132062E-1,2.341904640E-1
1.539847894E2,3.053562641E-1,-2.943606973E-1,-2.237293869E-2
1.540847560E2,-1.698969007E-1,-6.834054738E-2,-4.314235970E-2
1.541846894E2,5.795583874E-2,1.375210434E-1,-1.347721517E-1
1.542846560E2,2.435825206E-2,-1.580613852E-2,-1.992947794E-2
1.543835164E2,1.978439838E-1,1.179733500E-1,-1.647045463E-1
1.544834830E2,1.532508135E-1,-1.422552466E-1,-2.667190433E-1
1.545834497E2,-4.612796307E-1,4.460079968E-1,-2.080759704E-1
1.546834165E2,-2.451096848E-2,1.168279815E-2,4.608214796E-1
1.547833831E2,-7.257842422E-1,1.802816093E-1,-1.640936732E-1
1.548833497E2,2.393828183E-1,-1.080467924E-1,3.588069677E-1
1.549833164E2,3.475059569E-1,2.432007194E-1,-8.834638447E-2
1.550832830E2,-9.048441797E-2,-9.399688989E-2,-1.408807933E-1
1.551832164E2,-1.436296850E-1,-7.811439037E-2,1.028544381E-1
1.552831497E2,-2.645809948E-1,1.320232451E-1,-2.520582676E-1
1.553830830E2,1.856266707E-1,5.694027543E-1,-1.866956949E-1
1.554830155E2,8.177958429E-2,2.798526287E-1,-2.795472145E-1
1.555829488E2,-1.908953884E-3,7.905359864E-1,1.688278764E-1
1.556828821E2,-1.332449764E-1,4.484514594E-1,1.957059503E-1
1.557828155E2,-4.246276915E-1,5.505422875E-2,-3.039818108E-1
1.558827488E2,1.030835137E-2,5.749769136E-2,-1.219439730E-1
1.559826821E2,3.951534629E-1,-3.853796124E-1,-1.928043365E-1
1.560826156E2,3.407864571E-1,-2.656500340E-1,-3.864486217E-1
1.561825489E2,-1.955532432E-1,-1.996765733E-1,-2.795472145E-1
1.562824822E2,-2.926808000E-1,4.802164435E-1,-3.216969073E-1
1.563824155E2,2.125047445E-1,1.143081561E-1,-6.146831438E-2
1.564823489E2,5.380959511E-1,-1.526399553E-1,-1.695914567E-1
1.565822825E2,2.424371392E-1,1.601230502E-1,-1.702023298E-1
1.566822158E2,-3.103958964E-1,-2.296089679E-1,-1.243874356E-1
1.567821491E2,-3.720932901E-1,-3.249039650E-1,2.109775841E-1
1.568820825E2,-7.765624672E-2,-2.705369592E-1,1.834886521E-1
1.569820158E2,2.589305043E-1,-2.888629138E-1,1.114065498E-1
1.570819492E2,1.239292845E-1,-2.577087879E-1,-9.140071273E-2
1.571819158E2,-2.725222707E-1,-6.645449996E-1,-1.787544489E-1
1.572818825E2,-2.719113827E-1,-6.039930135E-2,2.256383449E-1
1.573818491E2,-7.215845585E-2,5.994115397E-2,-7.612907887E-2
1.574818158E2,3.053562641E-1,2.358703464E-1,-4.986187443E-2
1.575817825E2,3.267365396E-1,7.406740915E-3,2.103667259E-1
1.576817490E2,1.062141955E-1,6.127741933E-1,3.997349441E-1
1.577817157E2,-1.521818042E-1,-2.265546471E-1,2.934443951E-1
1.578816824E2,-2.053270787E-1,2.390010282E-2,2.879466116E-1
1.579816491E2,4.208098054E-1,-2.491566688E-1,3.447570801E-1
1.580816157E2,-1.338558495E-1,4.589125142E-2,-2.080759704E-1
1.581816157E2,-8.009970188E-2,4.185190499E-1,-3.436116967E-3
1.582816157E2,-1.405753642E-1,3.598759770E-1,2.476294935E-1
1.583816157E2,6.650795043E-2,2.573269792E-2,3.627012298E-2
1.584816157E2,2.485457957E-1,9.170614183E-2,4.298964143E-2
1.585816160E2,3.444516361E-1,2.303725630E-1,5.115996581E-3
1.586816160E2,1.397354249E-2,1.778381467E-1,2.500729561E-1
1.587816160E2,1.361465901E-1,-2.827542424E-1,2.286926806E-1
1.588816160E2,-3.610977232E-1,5.994115397E-2,-1.109483987E-1
1.589816160E2,1.935679317E-1,2.267837152E-2,1.480584592E-1
1.590816159E2,3.560580909E-1,2.212095708E-1,9.392052889E-3
1.591816159E2,3.847687542E-1,2.706896663E-1,9.185886383E-2
1.592816159E2,-1.356884390E-1,-1.856266707E-1,-5.902485549E-2
1.593816159E2,-2.364812046E-1,-1.098793894E-1,-1.378264725E-1
1.594816159E2,1.844049394E-1,1.466840208E-1,2.290744742E-4
1.595816156E2,2.461023331E-1,5.095379949E-1,9.918924421E-2
1.596816156E2,3.194061518E-1,5.541311502E-1,6.007096171E-1
1.597816156E2,2.069306001E-2,1.979966909E-1,6.803511828E-2
1.598816156E2,-1.845576614E-1,-5.387067795E-1,2.405281924E-2
1.599816156E2,1.220966876E-1,-3.817144334E-1,1.474476010E-1
1.600816156E2,5.173265338E-1,-3.236822188E-1,-8.323038928E-3
1.601816156E2,4.696790278E-1,4.161519557E-2,1.138500124E-1
1.602816157E2,4.318053722E-1,-3.731622994E-1,3.142138124E-1
1.603816157E2,-3.446043432E-1,5.749769136E-2,-7.857254148E-2
1.604816157E2,3.169626892E-1,2.364812046E-1,2.176970989E-1
1.605816157E2,3.566689491E-1,2.132683247E-1,8.819366992E-2
1.606816157E2,1.611920595E-1,7.392233014E-1,5.133558512E-1
1.607816157E2,-2.181552500E-1,3.123048507E-2,-4.657847341E-3
1.608816157E2,-4.747186601E-1,2.756529488E-2,-5.902485549E-2
1.609816157E2,4.574617147E-1,7.635815564E-5,3.239876628E-1
1.610816157E2,3.902665377E-1,1.888337135E-1,1.916589774E-2
1.611822984E2,3.004693389E-1,2.633592784E-1,2.311361432E-1
1.612822985E2,-3.922518492E-1,4.808273017E-1,-2.141846269E-1
1.613822985E2,-6.116288155E-2,-6.895141304E-2,1.120174155E-1
1.614822984E2,-2.084577642E-2,1.472948790E-1,1.132391468E-1
1.615822990E2,2.277763784E-1,-2.473240644E-1,-4.069889709E-2
1.616822990E2,2.662608922E-1,3.684281111E-1,2.445751727E-1
1.617822990E2,1.874592751E-1,1.595121920E-1,3.643047512E-1
1.618823005E2,1.145372284E-3,-1.422552466E-1,3.199406713E-2
1.619823005E2,2.015091777E-1,-2.406045496E-1,8.147415519E-2
1.620823013E2,2.974150181E-1,-1.153771728E-1,1.535562575E-1
1.621823013E2,-5.627596006E-2,1.827250719E-1,-1.573741585E-1
1.622823014E2,8.910996467E-2,-1.960113794E-1,3.007747829E-1
1.623823014E2,-1.326341182E-1,2.566397488E-1,6.948592141E-3
1.624823014E2,5.062545836E-2,4.130212665E-1,-9.689849615E-2
1.625823017E2,3.890447915E-1,-2.435825206E-2,-2.074651122E-1
1.626823017E2,2.876411676E-1,6.238461286E-2,-1.506546438E-1
1.627823017E2,2.711478174E-1,2.309834212E-1,-3.723987341E-1
1.628823017E2,-1.619556546E-1,-1.837940812E-1,5.215261877E-2
1.629823017E2,-6.971499324E-2,3.116176426E-1,4.693735838E-1
1.630823017E2,1.917353272E-1,2.780200541E-1,9.674578160E-2
1.631823017E2,3.107776865E-2,-1.776854247E-1,-1.640936732E-1
1.632823017E2,-7.343363762E-1,-3.719405830E-1,-3.901138306E-1
1.633823017E2,-7.257842422E-1,4.179081917E-1,-1.585958898E-1
1.634823016E2,-8.559749275E-2,1.393536329E-1,-1.017854214E-1
1.635823019E2,1.605812013E-1,3.867540658E-1,5.154175684E-2
1.636823019E2,1.361465901E-1,3.867540658E-1,1.865429729E-1
1.637823019E2,-3.238349259E-1,9.476047009E-2,-1.665371358E-1
1.638823019E2,-3.604868650E-1,-2.900846303E-1,1.327868253E-1
1.639823019E2,6.772968173E-2,-1.519527286E-2,4.925864637E-1
1.640823019E2,1.080467924E-1,-1.813506186E-1,8.025242388E-2
1.641823019E2,2.863430791E-2,-8.849909902E-2,5.581781268E-2
1.642823018E2,-2.260964960E-1,-2.741257846E-2,-1.170570552E-1
1.643819350E2,-6.604980677E-2,5.101488233E-1,-1.946369410E-1
1.644819350E2,1.220966876E-1,2.596940994E-1,-3.131448030E-1
1.645819345E2,4.550182521E-1,9.170614183E-2,-1.140027270E-1
1.646819345E2,1.330922693E-1,7.338018715E-2,-1.689805984E-1
1.647819345E2,-1.130864322E-1,1.656972058E-2,3.722459972E-1
1.648819330E2,-5.156466365E-1,-7.366271019E-1,1.969276816E-1
1.649819330E2,2.435825206E-2,-2.589305043E-1,2.647337317E-1
1.650819321E2,2.137264758E-1,-5.026657581E-1,1.608866304E-1
1.651819321E2,-2.206750773E-2,1.185842156E-1,-1.708131880E-1
1.652819321E2,-6.427065730E-1,-2.015091777E-1,-4.011093974E-1
1.653819317E2,2.130392566E-2,3.782019317E-1,5.703954399E-2
1.654819317E2,2.845868468E-1,-6.589708477E-2,-1.152244583E-1
1.655819317E2,1.147663072E-1,-1.184315011E-1,-3.510184288E-1
1.656819317E2,4.024838507E-1,3.232240677E-1,-2.542726509E-2
1.657819317E2,-4.117995203E-1,-3.456733823E-1,-3.656792045E-1
1.658819317E2,-4.692208767E-1,-4.537965059E-1,-4.925100878E-2
1.659819317E2,-3.641520441E-1,-3.438407779E-1,1.254564524E-1
1.660819317E2,5.062545836E-2,-1.673007160E-1,8.697193861E-2
1.661819317E2,-3.489567712E-2,-1.702786796E-2,-2.471713424E-1
1.662819317E2,-1.521818042E-1,-3.145192564E-1,-2.056325078E-1
1.663819317E2,-1.240820065E-1,2.621375620E-1,-5.910884738E-1
1.664819317E2,1.367574632E-1,-1.691333205E-1,-8.651378751E-2
1.665819317E2,3.890447915E-1,1.100321040E-1,3.688098863E-2
1.666819316E2,2.943606973E-1,-3.779728711E-2,2.476294935E-1
1.667819316E2,1.756237587E-3,5.529094338E-1,8.865945339E-1
1.668819316E2,-2.285399586E-1,-2.308306992E-1,2.238057554E-1
1.669819316E2,-4.252385795E-1,2.144900560E-1,-2.966514230E-1
1.670819316E2,-1.399645060E-1,4.894557595E-2,2.305252701E-1
1.671819316E2,1.837940812E-1,-1.886046492E-2,6.192646548E-2
1.672819316E2,1.147663072E-1,4.087451994E-1,-7.735081017E-2
1.673819313E2,1.019381359E-1,-1.636355221E-1,2.451860309E-1
1.674819313E2,-8.017606102E-3,-8.605564386E-2,-2.147954851E-1
1.675819319E2,2.039526403E-1,2.468659133E-1,-1.928043365E-1
1.676819319E2,3.603341281E-1,4.973206818E-1,2.024254650E-1
1.677819319E2,-8.315403014E-2,2.199878395E-1,5.836054087E-1
1.678819319E2,-2.260964960E-1,-3.866013288E-1,3.203224540E-1
1.679819319E2,-1.924989074E-1,2.065488100E-1,2.671771944E-1
1.680819319E2,-1.766164154E-1,-1.091921609E-2,3.197115958E-1
1.681819319E2,-1.967749745E-1,-3.994295001E-1,-1.653154045E-1
1.682819319E2,-2.114357352E-1,1.619556546E-1,-1.304960847E-1
1.683819323E2,3.901901841E-2,2.254856378E-1,9.674578160E-2
1.684819323E2,-6.185010541E-3,1.790598780E-1,-9.750936180E-2
1.685819323E2,2.137264758E-1,1.301906556E-1,-1.213331074E-1
1.686819323E2,4.391357601E-1,1.857793927E-1,1.657735556E-1
1.687819323E2,-2.297616899E-1,-2.008983046E-1,2.128101736E-1
1.688819323E2,-2.242639065E-1,-3.542254865E-1,1.205695271E-1
1.689819971E2,-1.497383416E-1,-1.428661048E-1,3.374266922E-1
1.690819971E2,1.025490016E-1,-1.862375438E-1,3.056617081E-1
1.691819971E2,-2.096031308E-1,-2.118938863E-1,-6.269004941E-2
1.692819971E2,-2.053270787E-1,1.534035355E-1,2.641228735E-1
1.693819971E2,-1.143081561E-1,8.559749275E-2,-5.230533704E-2
1.694819971E2,-5.138903856E-2,-2.851977050E-1,-2.984840274E-1
1.695819970E2,3.077997267E-1,3.306308016E-2,1.065196246E-1
1.696819971E2,2.687043548E-1,2.914590836E-1,6.559165567E-2
1.697819971E2,7.354053855E-1,8.675050139E-1,6.605743766E-1
1.698819971E2,-1.405753642E-1,-1.037707329E-1,9.552405030E-2
1.699819971E2,-2.370920777E-1,-1.031598672E-1,4.505131394E-3
1.700819971E2,3.145192564E-1,-4.324162304E-1,2.286926806E-1
1.701819971E2,2.674826086E-1,9.476047009E-2,3.138320148E-2
1.702819971E2,1.807397604E-1,3.372739851E-1,-6.940956414E-2
1.703819971E2,-8.315403014E-2,-2.546544373E-1,1.977676153E-2
1.704819971E2,3.762166202E-1,-5.856670439E-2,-2.092977017E-1
1.705819962E2,6.425538659E-1,-1.227075532E-1,-5.719225854E-2
1.706819962E2,5.680283308E-1,-3.535382450E-2,4.718170464E-1
1.707819962E2,1.190423667E-1,3.244458139E-1,4.718170464E-1
1.708819962E2,-4.711298272E-2,-3.004693389E-1,2.793944776E-1
1.709819962E2,-5.205335617E-1,1.779145002E-2,-8.040513843E-2
1.710819962E2,1.245401502E-1,-1.007164046E-1,2.060906589E-1
1.711819962E2,2.992476225E-1,1.130864322E-1,-5.413793400E-2
1.712819961E2,3.982077837E-1,2.309834212E-1,1.517236531E-1
1.713819961E2,1.440878361E-1,-2.583196461E-1,1.938733608E-1
1.714819961E2,-2.407572716E-1,3.391065598E-1,-2.777146101E-1
1.715819961E2,8.788824081E-2,2.010510266E-1,-6.757696718E-2
1.716819961E2,3.151301146E-1,1.246928647E-1,8.636107296E-2
1.717819961E2,2.008983046E-1,3.904192448E-1,2.738966942E-1
1.718819961E2,-2.676353455E-1,-5.917757004E-2,3.932445124E-2
1.719819961E2,-6.610325575E-1,-1.630246639E-1,-7.246389240E-2
1.720819961E2,5.429064855E-2,-2.252565511E-2,3.209333420E-1
1.721819961E2,2.497675270E-1,1.882228553E-1,1.089630872E-1
1.722819961E2,1.538616866E-1,2.695442922E-2,-1.488220394E-1
1.723819961E2,-3.128393590E-1,-1.355357319E-1,-5.605452061E-1
1.724819961E2,-4.264602959E-1,3.741549561E-3,-4.237114191E-1
1.725819959E2,1.819614917E-1,2.419789881E-1,1.000291854E-2
1.726819959E2,1.355357319E-1,2.041053474E-1,-7.735081017E-2
1.727819959E2,7.872525603E-2,1.362993121E-1,1.914298981E-1
1.728819959E2,-1.576795876E-1,-1.086576581E-1,-1.408807933E-1
1.729819959E2,-4.185190499E-1,-4.006512463E-1,-2.135737687E-1
1.730819959E2,2.888629138E-1,-2.546544373E-1,4.345542490E-1
1.731819959E2,1.184315011E-1,-2.992476225E-1,-8.323038928E-3
1.732819959E2,-3.184135258E-2,-7.872525603E-2,-2.251801938E-1
1.733819959E2,-5.865070224E-1,-3.029128015E-1,-5.379431844E-1
1.734819959E2,-3.782019317E-1,2.908482254E-1,-2.025781870E-1
1.735819961E2,1.145372284E-3,1.625665128E-1,-1.427133977E-1
1.736819961E2,1.422552466E-1,1.901318133E-2,-9.445504099E-2
1.737819961E2,5.612324551E-2,7.948884368E-2,4.176791012E-2
1.738819961E2,-1.589013189E-1,5.322163552E-2,2.183079720E-1
1.739819961E2,-2.859613001E-1,-6.217844486E-1,1.028544381E-1
1.740819962E2,-2.878702432E-2,-2.766456008E-1,1.413389444E-1
1.741819962E2,2.968041599E-1,-4.018729627E-1,2.238057554E-1
1.742819962E2,1.251510233E-1,1.924989074E-1,-6.024658307E-2
1.743816952E2,-4.960989356E-1,-3.413209692E-2,-9.506590664E-2
1.744816952E2,-5.933028832E-2,3.885866404E-1,-1.873065531E-1
1.745816949E2,3.090214431E-1,2.890156209E-1,-8.162686974E-2
1.746816949E2,2.924517356E-2,-1.605812013E-1,-1.897500157E-1
1.747816949E2,2.796999216E-1,-5.612324551E-2,6.131559983E-2
1.748816949E2,2.601522505E-1,1.949423701E-1,2.616794109E-1
1.749816949E2,1.019381359E-1,-4.672355652E-1,3.557526469E-1
1.750816949E2,-3.611740842E-2,-2.435825206E-2,3.624721766E-1
1.751816949E2,2.595413625E-1,-1.611920595E-1,2.677880526E-1
1.752816949E2,2.858085632E-1,-3.779728711E-2,3.077233583E-2
1.753816949E2,4.061490297E-1,3.378848433E-1,1.162934676E-1
1.754816949E2,-5.383250117E-2,-1.459204406E-1,-1.494329125E-1
1.755816949E2,-8.437576145E-2,9.781479836E-2,-1.769218445E-1
1.756816949E2,6.162103266E-2,1.430188268E-1,-1.274417639E-1
1.757816949E2,1.575268805E-1,2.193769813E-1,9.613491595E-2
1.758816949E2,6.162103266E-2,3.824779987E-1,3.710242808E-1
1.759816949E2,-3.856086731E-2,-1.709659100E-1,2.238057554E-1
1.760816950E2,-5.938373804E-1,9.850202128E-3,-2.068542391E-1
1.761816950E2,1.960113794E-1,-1.899027377E-1,1.993711442E-1
1.762816950E2,4.199698567E-3,-2.008219436E-2,-7.612907887E-2
1.763816950E2,8.483391255E-2,-9.033169597E-2,1.957059503E-1
1.764816950E2,-6.849326193E-2,-2.821433842E-1,-9.567677230E-2
1.765816950E2,-4.490623176E-1,3.415500224E-1,-1.176679209E-1
1.766816950E2,2.222785950E-1,8.132143319E-2,-1.567633003E-1
1.767816950E2,5.582544804E-1,-5.062545836E-2,-1.592067480E-1
1.768816950E2,4.073707461E-1,-2.167807966E-1,2.787836194E-1
1.769816950E2,-3.091741800E-1,-1.520290822E-1,1.028544381E-1
1.770816950E2,-2.987894714E-1,-2.705369592E-1,3.740786016E-1
1.771816950E2,-4.222606122E-2,-2.589305043E-1,3.655264974E-1
1.772816950E2,1.098793894E-1,-1.501964927E-1,3.565925732E-2
1.773816950E2,-2.206750773E-2,-3.768275082E-1,-3.100904822E-1
1.774816950E2,-4.130212665E-1,-2.436588705E-1,-6.259077787E-1
1.775816952E2,-1.937206388E-1,3.873649240E-1,-3.644574881E-1
1.776816952E2,1.294270754E-1,8.498662710E-2,-1.702023298E-1
1.777816952E2,1.196532324E-1,8.315403014E-2,-6.100252867E-1
1.778816952E2,4.256967306E-1,2.670244575E-1,3.136029541E-1
1.779816952E2,-1.741729528E-1,2.639701366E-1,8.269587904E-2
1.780816952E2,-3.482695520E-1,-4.495204687E-1,2.134210467E-1
1.781816952E2,-1.967749745E-1,-9.766208380E-2,1.895972937E-1
1.782816619E2,-3.795000166E-2,-3.444516361E-1,-8.590292186E-2
1.783816285E2,1.288162023E-1,9.781479836E-2,1.969276816E-1
1.784815952E2,1.709659100E-1,-7.506006956E-2,2.818379402E-1
1.785815621E2,-1.417970955E-1,-1.905135959E-1,-9.995282441E-2
1.786815288E2,-9.476047009E-2,8.193229884E-2,-3.815616965E-1
1.787814954E2,1.837940812E-1,6.116288155E-2,-2.648864388E-1
1.788814621E2,4.024838507E-1,3.849214613E-1,1.608866304E-1
1.789814288E2,5.283221006E-1,6.445391774E-1,7.723627687E-1
1.790813953E2,-2.554180324E-1,3.245221451E-2,5.398521572E-2
1.791813620E2,-3.323870599E-1,2.512183413E-2,1.132391468E-1
1.792813287E2,8.483391255E-2,-2.509892583E-1,1.627192348E-1
1.793812953E2,1.434769779E-1,7.704538107E-2,-1.225548387E-1
1.794812620E2,2.613739669E-1,2.462550551E-1,1.169043332E-1
1.795812287E2,1.465312988E-1,-1.734093726E-1,-1.060614809E-1
1.796811953E2,-1.992184222E-1,3.555999398E-1,-4.469242990E-1
1.797811620E2,9.460775554E-2,1.901318133E-2,-2.367866337E-1
1.798811287E2,1.844049394E-1,8.376489580E-2,-1.457677186E-1
1.799810953E2,1.795180291E-1,1.479057521E-1,8.086328954E-2
1.800810620E2,7.322747260E-2,2.144900560E-1,1.450041384E-1
1.801810287E2,-2.450333238E-1,1.290452853E-2,3.016147204E-2
1.802809953E2,9.582948685E-2,-4.965570867E-1,1.902081668E-1
1.803809620E2,1.483639032E-1,-1.666898578E-1,-2.725986205E-2
1.804809286E2,-1.057560444E-1,-2.644282877E-1,-2.648864388E-1
1.805808953E2,-1.717294902E-1,-7.139487565E-2,-2.410627007E-1
1.806808620E2,-7.099017501E-1,5.034292936E-1,-5.043455958E-1
1.807808286E2,1.111011133E-1,1.656972058E-2,2.955060638E-2
1.808807954E2,-4.528038576E-2,6.177374721E-2,-1.219439730E-1
1.809807620E2,2.723695338E-1,2.517528534E-1,4.211152196E-1
1.810807287E2,-2.163226604E-1,-2.943606973E-1,1.553888470E-1
1.811805635E2,-1.753946841E-1,-3.664427996E-1,8.697193861E-2
1.812805635E2,6.032294128E-3,7.887797803E-2,2.714532316E-1
1.813805635E2,8.239044994E-2,-2.149482071E-1,1.427897532E-2
1.814805635E2,-1.228602752E-1,7.215845585E-2,-1.708131880E-1
1.815805633E2,-2.572506368E-1,1.417970955E-1,-6.330090761E-2
1.816805633E2,8.483391255E-2,1.686751693E-1,-2.237293869E-2
1.817805633E2,-1.840231568E-2,1.259146035E-1,-1.280526221E-1
1.818805633E2,3.168863431E-2,4.100432992E-2,-1.561524272E-1
1.819805633E2,5.209916830E-1,2.083813995E-1,3.759112060E-1
1.820805633E2,1.056033298E-1,2.615266740E-1,5.182427764E-1
1.821805632E2,2.613739669E-1,-9.949467331E-2,2.256383449E-1
1.822805632E2,-3.531564772E-1,-9.155342728E-2,-1.732566506E-1
1.823805633E2,9.338602424E-2,-2.216677219E-1,3.038291037E-1
1.824805633E2,2.289981097E-1,-6.032294128E-3,-1.870774850E-2
1.825805633E2,7.322747260E-2,5.688682571E-2,-1.504255645E-2
1.826805633E2,-1.827250719E-1,-1.458440814E-2,-3.852269053E-1
1.827805633E2,-2.499202490E-1,3.617085814E-1,-4.011093974E-1
1.828805633E2,9.155342728E-2,2.756529488E-2,-5.352706835E-2
1.829805633E2,6.467536092E-2,-3.535382450E-2,-1.848630905E-1
1.830805633E2,-7.635815564E-5,3.067307174E-1,9.491318464E-2
1.831805633E2,-2.786309123E-1,-2.424371392E-1,3.382666409E-2
1.832805633E2,-9.109527618E-2,-6.175084114E-1,1.114065498E-1
1.833804186E2,-6.788240373E-2,-1.465312988E-1,4.298964143E-2
1.834804187E2,1.837940812E-1,-1.239292845E-1,1.248455867E-1
1.835804184E2,1.899027377E-1,-9.949467331E-2,6.498079002E-2
1.836804184E2,-4.295146167E-1,-1.410335153E-1,-3.614031374E-1
1.837804184E2,-3.433826268E-1,1.747838110E-1,-4.951826334E-1
1.838804184E2,2.308306992E-1,-2.210568637E-1,-4.375322163E-2
1.839804184E2,-6.727153808E-2,2.817615867E-2,-2.111303061E-1
1.840804184E2,3.273474276E-1,1.802816093E-1,1.914298981E-1
1.841804184E2,-8.132143319E-2,4.496731758E-1,2.335795909E-1
1.842804184E2,1.758528352E-1,-1.605812013E-1,4.205043614E-1
1.843804183E2,-3.165045679E-1,1.796707362E-1,3.260493279E-2
1.844804183E2,1.269836128E-1,-9.705121815E-2,1.914298981E-1
1.845803108E2,1.984548420E-1,1.656972058E-2,1.193477958E-1
1.846803108E2,1.318705380E-1,-4.757113010E-2,1.718822122E-1
1.847803108E2,2.118938863E-1,-5.184718594E-2,1.633300930E-1
1.848803109E2,-3.525456190E-1,4.588361681E-1,-3.009274900E-1
1.849803109E2,1.489747614E-1,-2.002874464E-1,-2.542726509E-2
1.850803109E2,1.978439838E-1,1.839468032E-1,5.948300287E-2
1.851803110E2,1.288162023E-1,2.169335186E-1,5.581781268E-2
1.852803110E2,-6.238461286E-2,-9.888381511E-2,2.201405615E-1
1.853803109E2,4.879286140E-2,-3.633884490E-1,3.099377453E-1
1.854803109E2,-4.130212665E-1,1.870011240E-1,-3.039818108E-1
1.855803116E2,-4.352414981E-3,-2.693152130E-1,1.794416644E-2
1.856803118E2,1.062141955E-1,-2.796999216E-1,1.621083617E-1
1.857803118E2,1.098793894E-1,-2.802344225E-2,2.885574698E-1
1.858803119E2,5.142721534E-1,2.902373374E-1,1.052978933E-1
1.859803119E2,-2.291508317E-1,3.733150363E-1,-3.198643029E-1
1.860803119E2,-8.628471754E-3,-8.422304690E-2,4.604396969E-2
1.861803119E2,6.162103266E-2,-1.599703431E-1,1.248455867E-1
1.862803119E2,2.473240644E-1,-3.229949996E-2,1.388954818E-1
1.863803119E2,-2.407572716E-1,3.123048507E-2,-1.256091595E-1
1.864803118E2,-1.314123869E-1,-2.155590802E-1,2.268600762E-1
1.865803118E2,-1.167516187E-1,-5.856670439E-2,3.380375504E-1
1.866803118E2,2.924517356E-2,-2.980258763E-1,2.067015320E-1
1.867803118E2,1.306488067E-1,-5.245805159E-2,-1.091158018E-1
1.868803119E2,2.790890634E-1,-1.886810064E-1,1.352302879E-1
1.869803119E2,1.355357319E-1,1.405753642E-1,-2.013564557E-1
1.870803119E2,-9.964739531E-2,1.210276783E-1,-3.821725547E-1
1.871803119E2,-1.283580661E-1,-5.551237985E-2,-1.940260679E-1
1.872803119E2,1.013272703E-1,1.198059469E-1,2.213622928E-1
1.873803119E2,1.471421719E-1,1.081995070E-1,1.120174155E-1
1.874803119E2,3.316234648E-1,7.154759020E-2,2.855031490E-1
1.875803119E2,6.223189831E-2,3.549890518E-1,-2.725986205E-2
1.876803119E2,-2.279291004E-1,-3.107776865E-2,-1.317178160E-1
1.877803119E2,-8.743008971E-2,-1.037707329E-1,3.099377453E-1
1.878803118E2,-8.009970188E-2,-5.062545836E-2,9.124799818E-2
1.879803118E2,9.888381511E-2,2.695442922E-2,4.604396969E-2
1.880803118E2,4.470770061E-1,-2.051743716E-1,4.970915988E-2
1.881803118E2,-1.840231568E-2,2.157117873E-1,-2.899319232E-1
1.882803118E2,-4.283692688E-2,-5.734497309E-2,-3.259729743E-1
1.883803118E2,-1.412625890E-2,2.157117873E-1,-1.787544489E-1
1.884803118E2,1.037707329E-1,-7.139487565E-2,2.390773892E-1
1.885803112E2,-2.138791978E-1,2.199878395E-1,-5.108360574E-2
1.886803109E2,-3.489567712E-2,-8.116871864E-2,-3.153591976E-2
1.887803109E2,-7.154759020E-2,2.328923717E-2,9.063713253E-2
1.888803109E2,-2.512183413E-2,2.512183413E-2,1.855503209E-2
1.889803109E2,-1.473712362E-2,4.283692688E-2,-2.481640130E-2
1.890803109E2,-3.672827408E-2,4.955644161E-2,2.061670180E-3
1.891803109E2,4.512767121E-2,3.061962128E-2,3.260493279E-2
1.892803109E2,-8.628471754E-3,-5.421428941E-3,5.115996581E-3
1.893803109E2,5.001459271E-2,6.872233935E-4,3.894265974E-3
1.894803109E2,7.872525603E-2,7.406740915E-3,3.138320148E-2
1.895803111E2,1.886046492E-2,1.908953884E-3,1.916589774E-2
1.896803111E2,4.634939879E-2,-5.062545836E-2,1.733330078E-2
1.897803111E2,-1.298088697E-3,2.573269792E-2,1.550070569E-2
1.898803110E2,1.145372284E-3,-2.374738641E-2,4.482223839E-2
1.899803110E2,5.421428941E-3,1.046106778E-2,1.977676153E-2
1.900803110E2,-9.239336476E-3,-1.397354249E-2,1.916589774E-2
1.901803110E2,2.008219436E-2,3.184135258E-2,4.421137273E-2
1.902803110E2,2.741257846E-2,-1.030835137E-2,5.581781268E-2
1.903803110E2,1.519527286E-2,6.795875728E-3,-8.933904581E-3
1.904803112E2,-9.239336476E-3,5.574145354E-3,2.771801129E-2
1.905803111E2,2.008219436E-2,-1.214094646E-2,6.009386852E-2
1.906803111E2,-6.872233935E-4,-1.214094646E-2,2.710714564E-2
1.907803111E2,-6.185010541E-3,-2.924517356E-2,-2.214386594E-3
1.908803111E2,-6.910412759E-2,-4.207334295E-2,-3.764457256E-2
1.909803111E2,-3.611740842E-2,-4.024074972E-2,-2.725986205E-2
1.910803111E2,2.069306001E-2,1.779145002E-2,5.726861767E-3
1.911803111E2,7.864889689E-3,3.428481147E-2,-1.443169173E-2
1.912803111E2,-2.519819187E-3,8.804095536E-2,8.170322515E-3
1.913803111E2,3.962988406E-2,-1.458440814E-2,4.848742858E-2
1.914803111E2,-4.405865446E-2,5.688682571E-2,3.199406713E-2
1.915803111E2,6.643159315E-3,3.123048507E-2,4.115704447E-2
1.916803111E2,1.886046492E-2,5.688682571E-2,3.565925732E-2
1.917803111E2,1.153008174E-2,-3.413209692E-2,1.733330078E-2
1.918803111E2,3.596469015E-2,2.206750773E-2,5.948300287E-2
1.919803111E2,2.977967961E-3,4.466952011E-2,2.527454868E-2
1.920803113E2,4.696026444E-2,-1.336267684E-2,9.392052889E-3
1.921803113E2,1.580613852E-2,5.627596006E-2,2.160935849E-2
1.922803113E2,-2.695442922E-2,-6.650795043E-2,5.032002553E-2
1.923803113E2,-3.000875562E-2,-1.251510233E-1,1.733330078E-2
1.924803115E2,4.085161164E-2,8.017606102E-3,-1.870774850E-2
1.925803113E2,-2.206750773E-2,1.962404512E-2,-8.773551881E-2
1.926803113E2,1.763873361E-2,2.573269792E-2,-1.152244583E-1
1.927803113E2,7.864889689E-3,4.466952011E-2,-1.443169173E-2
1.928803113E2,-1.595885493E-2,1.779145002E-2,3.077233583E-2
1.929803113E2,2.741257846E-2,-2.557998151E-2,3.260493279E-2
1.930803113E2,2.496911772E-2,1.173624843E-1,6.253732741E-2
1.931803113E2,-9.292787313E-2,-1.947133057E-2,2.476294935E-1
1.932803113E2,-2.413681298E-1,8.071056753E-2,8.517752290E-1
1.933803113E2,-1.961641014E-1,-2.796999216E-1,1.705153942E0
1.934803111E2,-2.352594733E-1,-9.888381511E-2,2.680094957E0
1.935803111E2,-8.987355232E-2,-1.361465901E-1,2.924441099E0
1.936803111E2,-1.521818042E-1,-1.202640980E-1,2.402762175E0
1.937803111E2,-5.383250117E-2,-3.212387562E-1,1.708819151E0
1.938803111E2,-2.682462037E-1,-1.495856196E-1,1.358182549E0
1.939803111E2,-9.964739531E-2,-6.528622657E-2,6.679047942E-1
1.940803111E2,-2.389246672E-1,-2.015091777E-1,3.007747829E-1
1.941803111E2,-1.100321040E-1,-2.063960880E-1,1.358411610E-1
1.942803111E2,4.940372705E-2,-5.917757004E-2,2.771801129E-2
1.943803111E2,1.580613852E-2,-3.046690486E-2,-7.063129544E-2
1.944803111E2,3.267365396E-1,2.512183413E-2,-7.735081017E-2
1.945800962E2,2.070069611E-1,3.995822370E-1,3.007747829E-1
1.946800962E2,1.025490016E-1,4.417319298E-1,3.282637000E-1
1.947800962E2,-1.540143937E-1,8.009970188E-2,-1.320996135E-2
1.948800962E2,-9.170614183E-2,8.437576145E-2,1.468367279E-1
1.949800962E2,1.972331107E-1,6.116288155E-2,6.620252132E-2
1.950800960E2,7.689265907E-2,-1.624137908E-1,-4.314235970E-2
1.951800960E2,-1.143081561E-1,-2.815325260E-1,-3.510184288E-1
1.952800960E2,1.030835137E-2,-6.643159315E-3,-2.025781870E-1
1.953800960E2,1.850158125E-1,6.482807547E-2,-6.879869848E-2
1.954800958E2,9.338602424E-2,1.894445866E-1,-1.292743534E-1
1.955800960E2,4.507421851E-1,2.554180324E-1,1.553888470E-1
1.956800960E2,3.145192564E-1,1.735620946E-1,4.345542490E-1
1.957800960E2,2.241111845E-1,-2.717586756E-1,2.955060638E-2
1.958800960E2,-2.804635167E-1,3.537673354E-1,1.095739529E-1
1.959800627E2,1.288162023E-1,-3.420081735E-1,6.864598393E-2
1.960800293E2,2.906954885E-1,-2.155590802E-1,-9.262244403E-2
1.961799960E2,-1.656972058E-2,-1.593594700E-1,-2.685516477E-1
1.962799626E2,-1.399645060E-1,-5.497023463E-1,-2.025781870E-1
1.963799293E2,7.017314434E-2,-7.444920391E-2,-1.457677186E-1
1.964798960E2,2.977967961E-3,4.466952011E-2,-9.262244403E-2
1.965798627E2,-1.290452853E-2,3.152828217E-1,-1.268308908E-1
1.966798294E2,-3.306308016E-2,1.106429696E-1,1.505019218E-1
1.967797960E2,5.277112126E-1,7.251734138E-1,1.113836408E0
1.968797627E2,-4.582252800E-1,3.855323195E-1,-5.413793400E-2
1.969797293E2,-6.238461286E-2,5.333617330E-1,2.238057554E-1
1.970796960E2,-3.293327391E-1,-2.924517356E-2,-2.386192381E-1
1.971796627E2,4.544073939E-1,-2.693152130E-1,-2.190715522E-1
1.972796293E2,6.425538659E-1,6.055201590E-2,3.343723714E-1
1.973795960E2,-2.451096848E-2,-2.461023331E-1,-2.661081851E-1
1.974795627E2,-1.857793927E-1,2.908482254E-1,-1.347721517E-1
1.975795294E2,2.931389511E-1,1.943315119E-1,-8.223773539E-2
1.976794961E2,6.315582991E-1,6.360634416E-2,1.010218412E-1
1.977794627E2,4.030947089E-1,1.240820065E-1,4.143957198E-1
1.978794294E2,4.810563754E-3,-1.990657151E-1,2.103667259E-1
1.979793961E2,-3.122285008E-1,4.352414981E-3,8.880453557E-2
1.980793627E2,-5.138903856E-2,5.810855702E-2,1.749365330E-1
1.981793294E2,1.734093726E-1,1.888337135E-1,-2.298380435E-2
1.982792960E2,-5.505422875E-2,-2.186134011E-1,-3.216969073E-1
