"Time (s)","Linear Acceleration x (m/s^2)","Linear Acceleration y (m/s^2)","Linear Acceleration z (m/s^2)"
1.565890000E-3,-2.144692093E-2,-1.153565645E-1,2.062377930E-1
1.015388900E-1,6.531298161E-2,-4.251825809E-2,-1.374645233E-1
2.015658900E-1,-4.401803017E-5,-4.474198818E-2,1.219663620E-1
3.015688900E-1,1.387099922E-2,-7.456195354E-2,1.286525726E-1
4.015775560E-1,-1.168861985E-3,-1.019781828E-1,4.575729370E-2
5.015775560E-1,2.538396418E-2,-5.155408382E-2,8.896255493E-2
6.015789560E-1,2.748534083E-3,-5.072176456E-2,3.949546814E-2
7.015789560E-1,-7.650122046E-3,-8.841323853E-2,1.166257858E-1
8.015828130E-1,9.827926755E-3,-3.744077682E-2,3.218841553E-2
9.015828130E-1,5.659274757E-2,-8.711576462E-2,4.312705994E-2
1.001585813E0,6.867982447E-2,-3.751957417E-2,5.346202850E-2
1.103247961E0,3.526954353E-2,-8.097052574E-2,3.480815887E-2
1.203250415E0,1.084904373E-2,-3.730571270E-2,2.165126801E-2
1.303250498E0,-2.536937594E-3,-5.151855946E-2,1.149187088E-1
1.403252498E0,1.427586377E-2,-1.274039745E-1,4.665851593E-2
1.503252855E0,7.066696882E-3,-4.092180729E-2,5.419158936E-2
1.603253255E0,-9.490445256E-3,-6.958472729E-2,2.596950531E-2
1.703253317E0,-1.354953647E-2,-6.020188332E-2,9.380626678E-2
1.803254905E0,1.519757509E-2,-9.793293476E-2,6.641578674E-2
1.903254905E0,4.332546890E-2,-6.315791607E-2,7.706737518E-2
2.003256326E0,2.516567707E-2,-5.372440815E-2,3.370380402E-2
2.103256326E0,1.614277065E-2,-6.570732594E-2,1.339979172E-1
2.203257611E0,3.273218870E-3,-1.031748056E-1,4.336452484E-2
2.303257611E0,-4.544973373E-3,-6.512713432E-2,2.253055573E-2
2.403258741E0,-2.334085107E-2,-6.988441944E-2,3.213882446E-2
2.503258741E0,-1.842564344E-2,-4.512906075E-2,5.423450470E-2
2.603258981E0,-7.663190365E-3,-9.216070175E-4,6.894874573E-2
2.703258981E0,8.095920086E-3,-5.088818073E-2,2.674770355E-2
2.803259981E0,3.184212744E-2,-7.689762115E-2,7.377624512E-2
2.903260088E0,2.280712128E-3,-5.489611626E-2,4.225730896E-2
3.003261019E0,4.533660412E-2,-7.484996319E-2,6.220149994E-2
3.103261019E0,1.915289462E-2,-5.664026737E-2,2.092933655E-2
3.203261019E0,4.722952843E-3,-3.288769722E-2,9.775543213E-2
3.303260819E0,7.392996550E-2,-5.028235912E-2,1.150465012E-1
3.403260819E0,-4.125010967E-2,-7.394993305E-2,1.317167282E-1
3.503260819E0,-4.031658173E-4,-1.161146164E-1,3.832340240E-2
3.603260785E0,1.638516784E-2,-3.869950771E-2,8.064270020E-2
3.703141651E0,1.614055037E-2,-1.176879406E-1,6.266117096E-2
3.803141651E0,2.977979183E-2,-1.128580570E-1,1.089906693E-1
3.903141784E0,9.923756123E-3,-8.406651020E-2,1.008205414E-1
4.003141784E0,-2.672654390E-2,-8.052098751E-2,-2.605438232E-3
4.103141784E0,3.055751324E-3,-5.354380608E-2,2.009773254E-2
4.203141784E0,7.144343853E-2,-3.181815147E-3,2.279853821E-2
4.303141750E0,5.186550319E-2,-6.016051769E-2,1.333265305E-1
4.403141750E0,3.941208124E-2,-7.342219353E-2,3.201103210E-2
4.503141583E0,1.200437546E-2,-5.019342899E-2,7.383537292E-2
4.603141349E0,-3.006586432E-2,-8.390688896E-2,7.161045074E-2
4.703141315E0,9.328246117E-3,-6.805586815E-2,1.249980927E-2
4.803141315E0,-2.450168133E-3,-5.792462826E-2,9.911346436E-2
4.903141315E0,-1.132756472E-2,-7.994318008E-2,6.715583801E-2
5.003141315E0,4.386135936E-2,-9.905743599E-2,8.096027374E-2
5.103141415E0,5.261366069E-2,-5.976188183E-2,-2.819252014E-2
5.203141415E0,2.154597640E-2,-6.053102016E-2,5.128288269E-2
5.303141448E0,-3.846623003E-2,-1.892626286E-2,1.076288223E-1
5.403141448E0,3.226418793E-2,1.415133476E-3,1.655540466E-1
5.503141448E0,-8.696302772E-3,-7.773756981E-2,4.061698914E-3
5.603141214E0,-3.405186534E-2,-2.129709721E-2,1.162567139E-1
5.703141214E0,-4.447522759E-2,-4.037785530E-2,6.116199493E-2
5.803141214E0,2.319628000E-2,-1.227629185E-2,3.633689880E-2
5.903141214E0,-1.719805598E-2,-5.640351772E-2,9.178161621E-3
6.003141214E0,-1.040706038E-2,-9.351217747E-2,1.251125336E-2
6.103141214E0,1.496207714E-2,-2.478754520E-2,6.325817108E-2
6.203141214E0,1.521784067E-2,-9.140205383E-2,6.639480591E-2
6.303141214E0,-2.282750607E-2,-3.484272957E-2,3.873729706E-2
6.403141214E0,-2.986559272E-2,-2.932810783E-2,8.628463745E-2
6.503141214E0,2.046662569E-2,-6.192243099E-2,2.087497711E-2
6.603141214E0,-1.263409853E-3,-1.794385910E-2,6.530284882E-2
6.703141214E0,3.552299738E-2,-2.971363068E-2,4.374980927E-2
6.803141214E0,2.517379820E-2,-1.537215710E-1,2.309226990E-2
6.903141080E0,2.923107147E-2,-4.525792599E-2,9.340476990E-2
7.003141080E0,-2.339363098E-3,-2.835643291E-2,-6.527233124E-2
7.103141080E0,2.203360200E-3,-2.698278427E-2,1.130733490E-1
7.203141080E0,3.752633929E-3,-5.567073822E-2,5.382347107E-2
7.303141080E0,2.484935522E-2,-1.976358891E-2,5.615520477E-2
7.403141080E0,4.728928208E-2,-3.474104404E-2,7.382202148E-2
7.503141080E0,1.876027882E-2,-2.111458778E-2,6.505680084E-2
7.603141313E0,7.620628178E-2,-2.182841301E-2,1.581745148E-1
7.703141313E0,6.761610508E-3,-3.763663769E-2,-4.203319550E-2
7.803141313E0,-1.883655787E-4,-5.944406986E-2,9.335136414E-2
7.903141313E0,1.582238078E-2,-2.203536034E-2,-1.170444489E-2
8.003141313E0,2.881704271E-2,-5.058205128E-2,6.314754486E-2
8.103141213E0,2.176727355E-2,-4.261100292E-2,9.991645813E-3
8.203141213E0,4.707823694E-2,-8.505678177E-2,7.811260223E-2
8.303141179E0,-2.665787935E-3,-3.000998497E-2,1.024446487E-1
8.403141179E0,2.564965189E-2,-7.662665844E-2,7.027721405E-2
8.503141212E0,-1.211066544E-2,-4.849636555E-2,7.157611847E-2
8.603141845E0,1.673837006E-2,-6.396079063E-2,8.855342865E-2
8.703141845E0,3.005245328E-2,-4.563176632E-2,2.773857117E-2
8.803141845E0,2.686320245E-2,-5.639481544E-2,1.065483093E-1
8.903141745E0,-2.768039703E-3,-3.497469425E-2,5.020999908E-2
9.003141745E0,2.036626637E-2,-5.943131447E-2,-2.352523804E-2
9.103141745E0,4.085081816E-2,-1.440489292E-2,1.264562607E-1
9.203141745E0,-2.943228185E-2,-4.639863968E-2,9.630870819E-2
9.303141745E0,6.431597471E-2,-5.031561852E-2,1.367139816E-1
9.403141745E0,1.988737285E-2,-6.447839737E-2,2.833366394E-3
9.503141745E0,-1.224456728E-2,-3.364729881E-2,1.145286560E-1
9.603141745E0,1.979951560E-2,-5.040585995E-2,6.418514252E-2
9.703141745E0,6.502934545E-2,2.938485146E-2,2.184104919E-2
9.803141745E0,4.070229828E-2,5.765318871E-3,-4.049205780E-2
9.903141778E0,4.195728153E-2,-9.216332436E-2,8.099937439E-2
1.000314178E1,1.557575166E-2,-1.097214222E-2,8.673667908E-3
1.010314178E1,1.653802395E-2,1.967215538E-2,-1.950359344E-2
1.020314178E1,4.352350533E-2,4.676985741E-2,-4.846286774E-2
1.030314178E1,2.869835496E-2,2.664966583E-1,-1.533536911E-1
1.040314178E1,-2.076496780E-1,4.423582554E-1,-5.458602905E-1
1.050314178E1,-2.903875411E-1,1.106987357E0,-8.636636734E-1
1.060314178E1,-1.963691562E-1,7.208021879E-1,-1.828079224E-1
1.070314184E1,2.183354795E-1,9.015296698E-1,-8.343563080E-1
1.080314184E1,1.125650406E0,6.091904640E-1,-6.959066391E-1
1.090314198E1,8.075754642E-1,1.398260593E0,-4.065513611E-1
1.100314198E1,1.128126979E0,1.091150165E0,3.254066467E0
1.110314198E1,-1.521011591E0,-1.701359272E0,2.915661812E0
1.120314198E1,-3.299409151E-1,-6.466062069E-1,-2.031228065E0
1.130314284E1,-5.778071284E-1,-3.678321242E-1,-1.851497650E0
1.140314284E1,-6.982597113E-1,5.294179916E-2,-1.322628975E0
1.150314281E1,-7.172083855E-2,9.480595589E-2,8.812074661E-1
1.160314244E1,4.904429615E-1,-1.137680650E0,3.019932747E0
1.170314244E1,6.924709082E-1,-1.810992479E0,2.283064842E0
1.180314244E1,-1.830233783E-1,-8.374713063E-1,-2.041050911E0
1.190314251E1,-2.758929729E-1,5.515366197E-1,-2.578302860E0
1.200314251E1,2.151422203E-1,1.361413002E-1,-1.514253616E-1
1.210314251E1,5.526173115E-1,-2.501462698E-1,3.505042076E0
1.220310917E1,-4.004913270E-1,-2.958932877E0,1.698695183E0
1.230307584E1,-1.736259609E-1,-1.386096954E0,-1.620985985E0
1.240304251E1,-3.497272730E-3,1.654996872E-1,-2.222451210E0
1.250300924E1,-2.161757648E-2,3.150700331E-1,-7.014818192E-1
1.260297594E1,-4.874452055E-1,-9.640864730E-1,3.622810364E0
1.270294260E1,-1.516226381E-1,-2.160531521E0,2.627890587E0
1.280290927E1,-2.345763743E-1,-1.752942562E0,-5.828456879E-1
1.290287600E1,2.116286457E-1,-1.181661487E-1,-2.458695412E0
1.300284267E1,3.298966289E-1,1.836091876E-1,2.323303223E-1
1.310280934E1,1.668406725E-1,-1.339691639E0,3.661539078E0
1.320277600E1,7.416868806E-1,-2.108920574E0,2.359668732E0
1.330274280E1,8.554615974E-1,-1.819334865E0,-1.037683487E-1
1.340270947E1,-2.209775448E-1,2.048265934E-2,-2.622481823E0
1.350267613E1,1.404245496E-1,-5.046496987E-1,-9.766025543E-1
1.360264280E1,-2.191101462E-1,-7.667140961E-1,3.830289841E0
1.370200210E1,-2.256503403E-1,-3.331020355E0,3.942607880E0
1.380196877E1,6.944577694E-1,-7.540057898E-1,-1.065964699E0
1.390193534E1,-4.507876039E-1,3.949952126E-2,-2.587759018E0
1.400190200E1,1.945481747E-1,-1.383378506E-1,-9.112110138E-1
1.410186867E1,5.559140444E-1,-1.643173337E0,2.843249321E0
1.420183534E1,-8.955507278E-1,-2.144551039E0,3.073273659E0
1.430180117E1,2.137076259E-1,-7.434403896E-1,-3.777809143E-1
1.440176783E1,-7.658864260E-1,-3.940972090E-1,-2.967102051E0
1.450170123E1,-3.342456222E-1,-1.613981724E-1,-1.130146980E0
1.460163457E1,-5.457468629E-1,-1.677747011E0,3.673481941E0
1.470156790E1,3.573164046E-1,-2.405303717E0,3.681808472E0
1.480150123E1,1.506234407E-1,-1.374913931E0,-1.103108406E0
1.490143450E1,5.151583254E-2,-1.059246063E-2,-3.306750298E0
1.500136783E1,-2.467242777E-1,-3.136227727E-1,-6.537218094E-1
1.510130116E1,8.909084797E-1,-3.894251585E-1,2.096730232E0
1.520126783E1,3.455779850E-1,-1.951765537E0,2.423402786E0
1.530123453E1,7.707179785E-1,-1.614099264E0,-1.060880661E0
1.540120120E1,-2.068558037E-1,-2.516641021E-1,-2.866110802E0
1.550116790E1,-1.907543391E-1,-4.426960349E-1,-1.313261032E0
1.560113456E1,1.219512224E-1,-1.199751973E0,2.213342667E0
1.570110123E1,5.161791444E-1,-2.460217476E0,2.561330795E0
1.580106790E1,7.774456739E-1,-2.360939503E0,-1.055364609E-1
1.590103446E1,-1.556830406E-1,-2.065128088E-2,-1.290826797E-1
1.600100113E1,2.263474464E-1,6.991350651E-1,-1.791295052E0
1.610096779E1,7.918988466E-1,2.799293995E-1,1.412336349E0
1.620093446E1,4.028207362E-1,-5.835076571E-1,2.874650002E0
1.630090099E1,1.436398625E-1,-2.395958662E0,6.342220306E-1
1.640086769E1,-7.182439566E-1,2.030132413E-1,-3.136458397E0
1.650083436E1,-8.884949684E-1,-8.562064171E-2,-2.007037163E0
1.660080106E1,-2.446144521E-1,-1.269476414E0,2.402829170E0
1.670076772E1,1.914568901E0,-2.450632811E0,3.655570984E0
1.680073439E1,7.341449857E-1,-1.218868136E0,-2.020273209E-1
1.690070102E1,-1.262329370E-1,-3.739855587E-1,-2.036551952E0
1.700066769E1,3.316622674E-1,6.541161537E-1,-1.342321396E0
1.710063436E1,5.441995263E-1,-9.594898224E-1,2.746934891E0
1.720060099E1,5.364172459E-1,-2.246471643E0,5.200789452E0
1.730056762E1,7.678548098E-1,-1.200988173E0,-8.877477646E-1
1.740053432E1,-5.715261102E-1,1.253852844E-1,-3.973384380E0
1.750053425E1,-5.720990896E-1,-9.838817120E-1,-1.188816071E0
1.760053425E1,2.520086169E-1,-1.081487536E0,3.063265800E0
1.770053425E1,-1.262939274E-1,-2.759271622E0,3.110474586E0
1.780053425E1,8.795110583E-1,-9.931017160E-1,-1.993563175E0
1.790053425E1,1.744209602E-2,-2.522032857E-1,-2.171605110E0
1.800053425E1,2.581562102E-1,3.475558758E-2,-8.539752960E-1
1.810053425E1,4.434683919E-1,-1.059581280E0,2.566946983E0
1.820053422E1,-6.389544010E-1,-1.820564151E0,3.695873260E0
1.830053419E1,2.201579958E-1,-1.347041130E0,-4.238510132E-2
1.840053422E1,-2.061628699E-1,-2.354409695E-1,-3.633477211E0
1.850053412E1,-1.245359421E0,-4.413634539E-1,-1.048368454E0
1.860053412E1,3.856955171E-1,-7.829789519E-1,1.775749207E0
1.870053408E1,6.759407371E-2,-2.205378532E0,3.858622551E0
1.880053409E1,5.497606993E-1,-1.803833008E0,7.012424469E-1
1.890053408E1,7.538015246E-1,2.211537957E-1,-3.476068497E0
1.900053408E1,-4.112305120E-2,-2.824378014E-2,-3.335322380E0
1.910053408E1,5.356298089E-1,-6.818562150E-1,2.154750824E-1
1.920053408E1,3.647444248E-1,-6.198929548E-1,2.905737877E0
1.930053409E1,4.921601415E-1,-2.569133759E0,2.196286201E0
1.940053408E1,-2.009441853E-1,-1.946407557E-1,-2.920710087E0
1.950053408E1,-8.502177000E-1,-1.798141003E-1,-3.247868061E0
1.960053408E1,-1.437729478E0,-6.475812793E-1,4.795579910E-1
1.970053408E1,2.810521424E-1,-5.362935066E-1,3.803346634E0
1.980053409E1,1.696771741E0,-2.490227699E0,1.906524658E0
1.990053408E1,1.412924826E-1,-4.158538580E-1,-2.425579548E0
2.000053408E1,-9.583279490E-3,1.211431623E-1,-2.497346401E0
2.010053408E1,5.269191265E-1,1.654522419E-1,-3.851404190E-1
2.020053412E1,3.686076403E-2,-5.576905608E-1,2.986124039E0
2.030053412E1,-3.645589948E-1,-1.705338597E0,3.771619797E-1
2.040053412E1,-7.619744539E-2,-1.287802458E0,-9.608230591E-1
2.050053432E1,-4.847823083E-1,-1.409232616E-3,-2.733034134E0
2.060053432E1,-6.216711998E-1,-5.623166561E-1,5.697517395E-1
2.070053432E1,-2.672386169E-2,-7.047643661E-1,2.653199196E0
2.080053432E1,4.600882232E-1,-2.623212337E0,1.652770042E0
2.090053432E1,4.893764853E-2,-6.671890020E-1,-1.441762924E0
2.100053432E1,6.178331971E-1,3.785243630E-1,-3.638772964E0
2.110053432E1,-1.736021042E-1,1.145618558E-1,-4.270792007E-1
2.120077360E1,-8.084970713E-2,-8.428653479E-1,4.853563309E0
2.130077360E1,-5.077387094E-1,-1.609220982E0,1.818318367E0
2.140077360E1,-5.648844838E-1,-1.670788527E0,-1.772244930E0
2.150077360E1,-1.728506088E-1,-1.693344116E-2,-3.024311543E0
2.160077360E1,3.105726838E-1,-4.570557475E-1,1.974582672E-1
2.170077363E1,-9.068015218E-1,-1.043139458E0,4.636369705E0
2.180077363E1,-2.664096355E-1,-2.103137493E0,7.818250656E-1
2.190077363E1,6.394142509E-1,-8.638649583E-1,-1.683948517E0
2.200077363E1,3.578907251E-2,2.966421843E-2,-1.103676796E0
2.210077363E1,-5.983861685E-1,-2.796341181E-1,1.359381676E0
2.220077363E1,3.025302589E-1,-9.581035972E-1,2.775503159E0
2.230077363E1,-4.238027930E-1,-2.416988373E0,2.599404335E0
2.240077363E1,-5.562219024E-1,-5.706582665E-1,-1.819055080E0
2.250077363E1,-4.649400711E-2,-1.458440423E-1,-2.709905148E0
2.260077363E1,-6.593194604E-2,-1.093711972E0,6.773195267E-1
2.270077363E1,-1.020939827E0,-4.850090146E-1,4.644777298E0
2.280077363E1,1.916177571E-1,-1.732381105E0,1.205912590E0
2.290077363E1,-1.969407797E-1,-1.308570981E0,-9.804458618E-1
2.300077363E1,4.802035987E-1,1.882549524E-1,-3.023664951E0
2.310077363E1,4.938626885E-1,-3.975128531E-1,-3.685102463E-1
2.320077363E1,-3.889479041E-1,-8.045917749E-1,5.021742821E0
2.330077377E1,-1.626191854E0,-1.978850365E0,1.752197266E0
2.340077373E1,4.518236518E-1,-7.817890644E-1,-1.498178482E0
2.350077366E1,-1.266649663E-1,4.905143380E-1,-2.802405834E0
2.360077367E1,2.135621011E-1,-4.379853308E-1,-5.065565109E-1
2.370056444E1,-3.872594833E-1,-8.755028844E-1,3.156028748E0
2.380056444E1,-5.849528313E-1,-2.001805782E0,3.103400230E0
2.390056444E1,-9.508514404E-2,-1.290707588E0,-7.448835373E-1
2.400056444E1,9.278671443E-2,3.756030798E-1,-2.504036903E0
2.410056444E1,6.078109741E-1,-8.364099264E-2,5.141382217E-1
2.420056448E1,7.500044703E-1,-6.784282923E-1,3.623294830E0
2.430056448E1,-8.392655253E-1,-2.503059387E0,2.587430000E0
2.440056448E1,-6.692668200E-1,-8.778600097E-1,-1.562893867E0
2.450056454E1,-5.953286290E-1,-3.009361029E-1,-2.088741302E0
2.460056454E1,-2.224365771E-1,-6.978830695E-1,1.325463295E0
2.470056454E1,-1.188944876E-1,-9.743381143E-1,3.064801216E0
2.480056454E1,-1.126490951E0,-1.878243923E0,1.348830223E0
2.490056454E1,7.857726812E-1,-8.900259137E-1,-2.382220745E0
2.500056454E1,4.757769704E-1,1.629598737E-1,-2.894801617E0
2.510056454E1,5.803188086E-1,2.484216094E-1,-8.301115036E-1
2.520056451E1,-5.068514347E-1,-1.825643778E0,4.969574928E0
2.530056451E1,-1.041327000E0,-2.142910719E0,2.745243073E0
2.540056451E1,4.706604779E-1,-1.767143011E0,-5.508069992E-1
2.550056451E1,1.182748675E-1,9.642625451E-1,-3.740113258E0
2.560056451E1,5.581080914E-3,-7.630978823E-1,4.043188095E-1
2.570056448E1,-9.674954414E-2,-7.175129056E-1,1.399709702E0
2.580056448E1,5.184506178E-1,-1.900901318E0,1.992455482E0
2.590056448E1,-2.512772679E-1,-1.895611525E0,1.020984650E-1
2.600056448E1,2.093856931E-1,4.293587208E-1,-1.941343307E0
2.610056448E1,3.601492643E-1,9.687128663E-2,-3.652381897E-1
2.620056448E1,4.461594522E-1,-5.435404181E-1,2.399127960E0
2.630056434E1,-1.420093179E0,-2.088110924E0,3.571530342E0
2.640056437E1,4.983976483E-1,-8.865736127E-1,-8.131875992E-1
2.650056424E1,-4.303214550E-1,-5.696684122E-3,-3.057039738E0
2.660056424E1,3.438583016E-1,-3.749102354E-2,-2.724285126E-1
2.670056511E1,-1.558436155E-1,-1.206787109E0,2.804821014E0
2.680056511E1,5.482904911E-1,-2.425418854E0,3.930240631E0
2.690056511E1,1.188745260E0,-6.716763973E-1,-9.910163879E-1
2.700056511E1,5.218756199E-1,-1.456600428E-2,-2.849915028E0
2.710056511E1,6.413653493E-1,2.448940277E-2,2.035903931E-2
2.720056507E1,-5.885064602E-3,-1.305794001E0,3.507225037E0
2.730056507E1,-5.451520681E-1,-2.405348063E0,3.164026260E0
2.740056507E1,-1.840597987E-1,-1.639990568E0,-2.192392349E-1
2.750056514E1,4.543587863E-1,5.194905400E-1,-3.121265411E0
2.760056514E1,-8.013838530E-2,-2.222688794E-1,-1.146523476E0
2.770056514E1,2.343215942E-1,-9.613770247E-1,2.289991379E0
2.780056514E1,-1.149781942E-1,-2.641242027E0,4.740015984E0
2.790056514E1,5.512038469E-1,-1.607066154E0,-3.952884674E-2
2.800056514E1,5.292726755E-1,1.000928283E-1,-3.495189667E0
2.810056514E1,3.405002356E-1,3.511862159E-1,-7.840938568E-1
2.820056514E1,-1.696493030E-1,-3.823100328E-1,2.998585701E0
2.830056514E1,-1.363397837E-1,-2.336538076E0,5.127939224E0
2.840056514E1,2.434703708E-1,-1.268553495E0,2.332878113E-1
2.850056514E1,-8.123582602E-1,-1.242111921E-1,-3.507762432E0
2.860056517E1,-3.129646182E-1,-1.119756699E-2,-8.636074066E-1
2.870056524E1,9.485445023E-1,-4.167690277E-1,2.096864700E0
2.880056524E1,8.475088477E-1,-2.389117241E0,4.457285881E0
2.890056524E1,5.910688639E-1,-1.687226295E0,3.573513031E-1
2.900056524E1,-1.600400805E-1,-7.570362091E-2,-3.021122456E0
2.910056537E1,4.678788185E-1,5.785297155E-1,-1.891742706E0
2.920056537E1,6.128268242E-1,-6.448699832E-1,2.000274658E0
2.930056534E1,-6.045004725E-1,-1.551072001E0,3.187939644E0
2.940056534E1,-3.790198267E-1,-1.874831200E0,1.033099174E0
2.950056534E1,-1.621104777E-1,2.977247834E-1,-2.971823692E0
2.960056534E1,3.717195988E-2,1.073579788E-1,-1.926767349E0
2.970056460E1,1.333091557E-1,-1.108651042E0,1.660814285E0
2.980056460E1,1.798389435E0,-1.701251745E0,3.814729691E0
2.990056460E1,4.948322773E-1,-1.667965889E0,3.425483704E-1
3.000056460E1,2.140000165E-1,2.370947599E-2,-3.463931084E0
3.010056547E1,-1.345878839E-1,3.048010468E-1,-1.634650230E0
3.020056547E1,7.647907734E-1,2.776491642E-1,3.951559067E-1
3.030056547E1,1.768604755E0,-6.627083421E-1,2.724677086E0
3.040056547E1,5.089553595E-1,-1.263742447E0,-2.436494827E-1
3.050056533E1,-7.976917028E-1,5.561888218E-2,-2.048075676E0
3.060056533E1,-3.372128606E-1,-2.902244329E-1,-2.173099518E-1
3.070056533E1,-4.456552267E-1,-1.226700783E0,2.254330635E0
3.080056533E1,5.737703443E-1,-1.322379351E0,2.533458710E0
3.090056533E1,1.298544168E0,-1.697480679E0,1.273906708E0
3.100056533E1,2.739903331E-1,4.015493393E-1,-3.418598175E0
3.110056533E1,4.654047191E-1,-3.462493420E-2,-2.276122093E0
3.120056533E1,1.389726877E0,-1.222159147E0,8.990516663E-1
3.130056533E1,1.840569675E-1,-1.975870252E0,4.139318466E0
3.140056533E1,-1.005025804E-1,-3.258278966E-1,-6.874694824E-1
3.150056533E1,-9.279072285E-2,-3.213879466E-1,-3.104060173E0
3.160056553E1,-8.715871722E-2,3.898680210E-1,-9.495801926E-1
3.170056550E1,-1.709255874E-1,-1.272979736E0,2.328945160E0
3.180056550E1,9.555874467E-1,-5.619525909E-1,1.366024017E0
3.190056550E1,7.962193489E-1,-1.885632753E0,6.066980362E-1
3.200056550E1,1.237800196E-1,5.410505533E-1,-2.251126289E0
3.210056557E1,4.757844210E-1,8.052200079E-2,-1.951650620E0
3.220056557E1,8.989860862E-2,-3.207544684E-1,1.373954773E0
3.230056567E1,4.728406668E-2,-1.194530487E0,3.621260643E0
3.240056563E1,-1.541961730E-1,-1.898061991E0,1.665817261E0
3.250056563E1,-3.224533200E-1,1.361042857E-1,-3.167421818E0
3.260056563E1,-4.519321620E-1,-3.001686335E-1,-1.090736389E0
3.270056550E1,-6.526601315E-2,-1.086343050E0,9.727249146E-1
3.280056550E1,1.170509338E0,-1.391408682E0,2.032245636E0
3.290056550E1,1.915361643E0,-1.048544645E0,7.089309692E-1
3.300056550E1,7.349684834E-1,-3.851652145E-2,-3.149444580E0
3.310056496E1,6.648693681E-1,2.511314154E-1,-1.658306122E0
3.320056500E1,-1.073265076E-1,2.170165777E-1,1.276689529E0
3.330056500E1,-6.796457767E-1,-5.182970166E-1,2.835089684E0
3.340056500E1,4.425091147E-1,-8.889436126E-1,4.930725098E-1
3.350056500E1,1.050697088E0,-1.951420903E-1,-3.135775089E0
3.360056500E1,1.244525313E-1,2.232450247E-2,-1.409629822E0
3.370045244E1,3.248106539E-1,-1.189824939E0,1.362820625E0
3.380045244E1,1.689347625E-2,-2.874226570E-1,1.771848679E0
3.390045244E1,7.936753631E-1,-1.402758479E0,-5.690145493E-1
3.400045244E1,-1.915427744E-1,-3.252773285E-1,-1.946224213E0
3.410045244E1,3.424360156E-1,2.688296437E-1,-2.027752399E0
3.420045247E1,6.908943653E-1,-2.708486319E-1,6.048879623E-1
3.430045247E1,-3.625565767E-1,-4.665107131E-1,3.554382324E-1
3.440045247E1,1.072019339E-3,-1.941508055E0,2.235340118E0
3.450045247E1,-2.223235965E-1,2.051481009E-1,-1.548227310E0
3.460045224E1,-6.115225554E-1,1.604596376E-1,-1.626795769E0
3.470045224E1,-2.673940659E-1,2.230584621E-3,3.501129150E-2
3.480045224E1,3.973668814E-1,-5.525622964E-1,8.517904282E-1
3.490045224E1,2.332373381E0,-2.737272739E0,6.207370758E-1
3.500045224E1,3.048173189E-1,-5.987592340E-1,-6.282129288E-1
3.510045214E1,7.254973650E-1,8.985042572E-1,-2.315936089E0
3.520045214E1,2.195838094E-1,4.113705158E-1,3.097209930E-1
3.530045207E1,-1.844404638E-1,-2.890729904E-1,2.461796761E0
3.540045207E1,-1.515687227E0,-1.978172421E0,2.781993866E0
3.550045207E1,-2.255567908E-2,-1.129462361E0,-3.430852890E-1
3.560045204E1,-2.440866232E-1,9.438985586E-2,-2.381967068E0
3.570045204E1,3.660976887E-1,-2.149897814E-1,-1.280916214E0
3.580045204E1,-3.487247527E-1,-8.646354675E-1,1.952014923E0
3.590045204E1,-1.918609142E-1,-1.603077650E0,3.456165314E0
3.600041870E1,-5.703856051E-2,-9.903630614E-1,4.030027390E-1
3.610038504E1,-2.751978040E-1,4.502587318E-1,-2.420563698E0
3.620035167E1,-9.046921134E-2,2.151899934E-1,-5.701694489E-1
3.630031833E1,1.676908135E-2,-6.304644942E-1,2.337986946E0
3.640028497E1,4.484254122E-2,-1.450426340E0,2.846268654E0
3.650025163E1,4.296492934E-1,-1.066475511E0,6.506853104E-1
3.660021830E1,-4.071109295E-1,2.125851810E-1,-3.251302242E0
3.670018497E1,1.444609016E-1,-1.190230846E-1,-4.481897354E-1
3.680015163E1,-1.045623571E-1,-7.227007151E-1,2.973995209E0
3.690011830E1,-8.670147061E-1,-2.091284037E0,4.556506157E0
3.700008496E1,2.854944170E-1,-6.723173261E-1,-2.320508957E-1
3.710005163E1,-6.472904086E-1,8.551729918E-1,-2.037483215E0
3.720001830E1,3.608477414E-1,-5.905454159E-1,-1.703023911E-1
3.729998496E1,4.664373398E-1,-5.972301960E-1,1.971116066E0
3.739995163E1,-5.429209471E-1,-1.495019913E0,3.230783463E0
3.749991829E1,1.721004844E-1,-1.165989518E0,-2.201175690E-2
3.759988496E1,-1.092422724E0,1.340163946E-1,-2.741885185E0
3.769985162E1,3.222002387E-1,-2.947190404E-1,-1.799192429E-1
3.779981829E1,-2.217878252E-1,-8.237937689E-1,2.458612442E0
3.789978496E1,-1.027038932E0,-2.007066727E0,3.547880173E0
3.799975162E1,4.733198881E-1,-9.776951671E-1,-9.199733734E-1
3.809971819E1,4.659953713E-1,-1.621767879E-1,-1.930098534E0
3.819968486E1,1.564119309E-1,4.223710299E-1,-4.323091507E-1
3.829965152E1,-4.438343644E-2,-6.378242373E-1,4.631161690E0
3.839961822E1,4.673395455E-1,-1.119723439E0,2.579415321E0
3.849958489E1,1.435339451E-1,-1.443333507E0,3.310327530E-1
3.859955159E1,-6.867618561E-1,1.342914701E-1,-3.038965702E0
3.869951825E1,-2.548643947E-2,1.319848895E-1,-1.555934906E0
3.879948492E1,-5.758689642E-1,-5.290207863E-1,1.948402405E0
3.889945158E1,2.750262320E-1,-2.190031052E0,4.276741028E0
3.899945158E1,2.589563727E-1,-9.397597313E-1,-4.384832382E-1
3.909945155E1,-1.394413412E-1,3.319575787E-1,-2.709763050E0
3.919945155E1,7.876826525E-1,4.780455232E-1,-2.055966854E0
3.929945155E1,7.344216108E-1,-5.499324799E-1,2.485979080E0
3.939945158E1,-3.913898468E-1,-6.310299039E-1,3.634657860E0
3.949945158E1,1.276059300E-1,-1.050541401E0,1.583976746E-1
3.959945158E1,-2.055018991E-1,-3.200435340E-1,-1.765657425E0
3.969945118E1,2.028539479E-1,-2.132871151E-1,-2.619257927E0
3.979945118E1,7.758894563E-2,-3.430116177E-1,9.605016708E-1
3.989945118E1,3.363285065E-1,-1.604756355E0,3.924396515E0
3.999945118E1,7.229024172E-1,-2.163090706E0,5.954494476E-1
4.009945118E1,-3.659448028E-2,1.386094093E-1,-2.128445625E0
4.019945118E1,3.950821161E-1,3.665919900E-1,-2.024365425E0
4.029945235E1,9.188517928E-2,-1.915855408E-1,1.075681686E0
4.039945235E1,5.422529578E-1,-1.374241114E0,3.957108498E0
4.049945252E1,2.648385465E-1,-8.545948863E-1,3.154325485E-1
4.059945252E1,-7.520024776E-1,-5.587154627E-2,-3.033987522E0
4.069945248E1,4.696792960E-1,-2.856913805E-1,-2.511968136E0
4.079945248E1,1.161267877E0,-3.172718287E-1,1.315382004E0
4.089945248E1,7.841672003E-2,-1.204065681E0,2.673747063E0
4.099945248E1,8.877896070E-1,-1.378202081E0,3.029346466E-1
4.109902601E1,7.029225230E-1,1.133224964E-1,-2.857457638E0
4.119902601E1,5.595029593E-1,5.047837496E-1,-1.896036148E0
4.129902601E1,5.115246773E-2,-3.303873539E-1,1.697786331E0
4.139902601E1,8.358454704E-1,-7.619859576E-1,3.658182144E0
4.149902688E1,2.347829640E-1,-1.655640483E0,1.274930000E0
4.159902688E1,-6.257699728E-1,-2.286599874E-1,-2.888599873E0
4.169902688E1,-2.597393990E-1,1.687179804E-1,-2.803147316E0
4.179902688E1,-4.600415826E-1,-9.906285405E-1,1.860686302E0
4.189902688E1,4.331875145E-1,-9.985533953E-1,2.800659180E0
4.199902688E1,3.867029250E-1,-1.338312507E0,1.334095001E0
4.209902778E1,-4.596066475E-2,-2.511020899E-1,-1.707570076E0
4.219902781E1,5.098353624E-1,1.422395110E-1,-2.040821075E0
4.229902787E1,-4.303514957E-3,-4.227562547E-1,4.101896286E-1
4.239902787E1,1.529004097E0,-9.329968691E-1,4.684175491E0
4.249902787E1,3.928515911E-1,-1.384761333E0,8.186330795E-1
4.259902787E1,-1.091009140E0,-9.167444706E-2,-1.793196678E0
4.269902921E1,2.888995409E-2,-3.931975365E-2,-2.041624546E0
4.279902921E1,7.446407080E-1,-1.861646414E0,2.792592049E0
4.289902917E1,-1.342091322E0,-1.271437883E0,1.727562904E0
4.299902917E1,-2.613198757E-2,-9.114748240E-1,8.850421906E-1
4.309902917E1,7.862264514E-1,3.622190058E-1,-2.440597534E0
4.319902917E1,4.054011703E-1,4.497720301E-1,-2.563218117E0
4.329902987E1,5.386582613E-1,2.824580073E-1,2.219805717E0
4.339902987E1,5.496662855E-1,-1.976855040E0,4.491046906E0
4.349902971E1,-6.103157997E-3,-1.633279681E0,-9.469175339E-1
4.359902971E1,3.316058815E-1,9.421849251E-2,-3.091895580E0
4.369910232E1,2.787981331E-1,-1.624423862E-1,-1.515673637E0
4.379910232E1,-2.015193403E-1,-1.275277138E0,3.636755943E0
4.389910318E1,-6.108447909E-1,-1.246568322E0,3.328530312E0
4.399910315E1,7.351958156E-1,-1.626723289E0,-2.879419327E-1
4.409910308E1,4.155190289E-1,6.428980827E-2,-2.519943714E0
4.419910308E1,1.168945789E0,2.435486913E-1,-1.460222244E0
4.429910308E1,5.418515801E-1,-8.393198848E-1,1.698115349E0
4.439910308E1,4.114555717E-1,-3.256352544E-1,1.335722923E0
4.449910308E1,7.668224573E-1,-9.450826645E-1,-4.708538055E-1
4.459910308E1,-7.415276766E-2,-8.111143708E-1,-2.621088505E0
4.469910308E1,1.286778450E-1,3.619390726E-2,-1.733899117E0
4.479910308E1,2.680910528E-1,-4.562603831E-1,1.434113503E0
4.489910308E1,2.944398522E-1,-1.012256861E0,2.044264793E0
4.499910305E1,7.204674482E-1,-1.751899719E0,1.635557175E0
4.509910218E1,1.356830597E0,3.191786408E-1,-4.109642982E0
4.519910218E1,9.248954058E-1,-2.141108513E-1,-1.896750450E0
4.529910211E1,4.079661369E-1,-1.309535503E-1,9.547338486E-1
4.539910211E1,9.010666609E-1,-9.930928946E-1,2.469777107E0
4.549910211E1,6.854312420E-1,-9.682848454E-1,-8.177471161E-1
4.559910278E1,-6.557242870E-1,-4.313613772E-1,-2.728521347E0
4.569910098E1,7.918548584E-2,1.208083630E-1,-1.355392456E0
4.579910098E1,5.085545778E-2,-9.916551113E-1,1.279684067E0
4.589910101E1,1.391337812E-1,-5.758029222E-1,1.766378403E0
4.599910101E1,1.022053003E0,-1.605370522E0,3.717336655E-1
4.609910101E1,-6.146556139E-2,-2.617259622E-1,-2.026241302E0
4.619910101E1,1.025911450E0,7.863566279E-1,-2.131331921E0
4.629910084E1,3.479039669E-2,1.684124470E-1,1.617242813E0
4.639910084E1,-2.163904905E-1,-1.551846862E-1,1.845438957E0
4.649910084E1,-8.609131575E-1,-1.696416616E0,8.516864777E-1
4.659910084E1,-8.238947392E-2,-5.403724909E-1,-3.221291065E0
4.669910084E1,7.070535421E-2,2.860110998E-2,-2.553710938E0
4.679910084E1,-1.478360295E-1,-7.486221194E-1,1.005846977E0
4.689909994E1,-8.226463199E-1,7.180991173E-1,2.119551659E0
4.699909998E1,-2.012216449E-1,-2.431479692E0,6.946640015E-1
4.709909998E1,1.728855968E-1,-2.144639194E-1,-1.916100979E0
4.719909998E1,4.560695589E-1,7.126172781E-1,-1.985826492E0
4.729909998E1,4.301488996E-1,2.188509107E-1,-2.053260803E-3
4.739909998E1,2.851825356E-1,-9.534984827E-2,2.355825424E0
4.749909911E1,-9.104752541E-1,-1.833760619E0,1.267788887E0
4.759909911E1,-3.239442706E-1,-2.314097285E-1,-1.873517990E0
4.769909911E1,2.105433941E-1,7.441489697E-1,-2.614030838E0
4.779909911E1,-1.804643273E-1,-1.030207753E0,9.482069016E-1
4.789909911E1,-3.492188454E-2,-1.237657666E-1,1.842737198E0
4.799909911E1,3.645353317E-1,-2.518343925E0,1.445606232E0
4.809909911E1,4.050823748E-1,-1.625800133E-2,-3.067580223E0
4.819909911E1,6.216829419E-1,1.050269604E0,-3.181195736E0
4.829909911E1,6.982424259E-1,-2.438789606E-2,5.999755859E-2
4.839909911E1,-9.690878391E-1,-3.960480392E-1,3.563121796E0
4.849909911E1,-1.042590857E0,-1.376634240E0,6.208620071E-1
4.859909844E1,4.646164179E-1,-2.532575727E-1,-1.958104610E0
4.869909941E1,1.799041629E-1,2.613950670E-1,-1.695531845E0
4.879909941E1,2.069090009E-1,-1.194081306E-1,-6.059494019E-1
4.889909941E1,-1.686729193E0,-3.285785913E-1,3.238188744E0
4.899909941E1,7.389712334E-2,-1.902476192E0,1.524348259E0
4.909909941E1,-3.050870299E-1,-8.524948359E-2,-1.095929146E0
4.919909941E1,3.412548304E-1,2.703980207E-1,-1.499452591E0
4.929909771E1,-5.814576149E-2,9.937793016E-2,3.234376907E-1
4.939909771E1,-7.144430876E-1,-6.346072555E-1,3.181583405E0
4.949909771E1,-9.872677326E-1,-1.417346716E0,1.503572464E0
4.959909771E1,8.946874142E-1,-1.054435134E0,-1.646002769E0
4.969909771E1,1.571354866E-1,-2.554703951E-1,-2.248132229E0
4.979909771E1,1.955167651E-1,-5.929261446E-1,-3.362569809E-1
4.989909774E1,-5.190606117E-1,-6.936287880E-2,3.465778351E0
4.999909774E1,-1.897355914E-1,-2.435843468E0,3.733847618E0
5.009909774E1,3.920339048E-1,-1.024256706E0,-4.545516968E-1
5.019909774E1,1.043257713E0,7.383517027E-1,-4.179223061E0
5.029909774E1,3.125730157E-1,-2.921269536E-1,9.202938080E-1
5.039909774E1,-3.473909497E-1,-6.977490783E-1,3.353825569E0
5.049909774E1,-8.222225904E-1,-1.295244575E0,2.397423744E0
5.059909774E1,1.011215687E0,-1.326822996E0,-1.456268311E0
5.069909771E1,-2.891400456E-1,2.426282763E-1,-3.094605923E0
5.079909771E1,-3.298690319E-1,-2.367763817E-1,1.766490936E-2
5.089909771E1,-7.344408035E-1,-9.656703472E-1,2.340023994E0
5.099909774E1,-4.097579420E-1,-1.530298233E0,5.138739586E0
5.109909774E1,8.960932493E-2,-8.403193355E-1,5.471858978E-1
5.119909774E1,8.053578138E-1,-1.453678906E-1,-3.043533325E0
5.129909774E1,5.315701962E-1,5.736333132E-2,-2.271908283E0
5.139909774E1,4.599825144E-1,-3.862890601E-1,2.206952095E0
5.149909771E1,-1.092494726E-1,-5.389600992E-1,2.433082581E0
5.159909771E1,4.279670119E-1,-1.349110246E0,5.398378372E-1
5.169909674E1,-6.667655110E-1,4.146203399E-2,-2.603693008E0
5.179909674E1,2.326434851E-2,-2.242201269E-1,-1.514084816E0
5.189909674E1,-2.847602367E-1,-6.687990427E-1,1.359594345E0
5.199909674E1,7.682083845E-1,-1.159208059E0,2.249107361E0
5.209909674E1,1.677087069E0,-1.274439216E0,7.255868912E-1
5.219909674E1,-7.694423199E-3,-7.056715488E-1,-3.764307976E0
5.229909674E1,3.336607516E-1,5.172572732E-1,-2.676444054E0
5.239909674E1,6.756368876E-1,8.223837614E-2,1.255377769E0
5.249909674E1,8.449769616E-1,-9.939536452E-1,2.648699760E0
5.259909674E1,-1.643055081E-1,-5.645071268E-1,-4.408559799E-1
5.269909761E1,-1.631634235E-1,-3.525340259E-1,-2.283307552E0
5.279909761E1,1.225368083E-1,2.936138511E-1,-2.138528824E0
5.289909761E1,8.026078343E-2,-6.859322786E-1,9.009838104E-1
5.299909761E1,-5.497747660E-1,1.322495937E-1,4.997329712E-1
5.309909757E1,8.585413694E-1,-1.110920429E0,8.182544708E-1
5.319909757E1,5.670531392E-1,-4.598930180E-1,-2.367226601E0
5.329909757E1,8.202441931E-1,5.196272135E-1,-3.152091980E0
5.339909757E1,5.446174145E-1,-7.441502810E-2,6.304950714E-1
5.349909757E1,9.064972401E-3,-5.919104815E-2,1.036622047E0
5.359909757E1,-6.961862445E-1,-1.690503359E0,1.426586151E0
5.369909761E1,9.476343393E-1,2.331466675E-1,-3.114863873E0
5.379909760E1,2.350883484E-1,2.808818221E-1,-1.988335609E0
5.389853150E1,2.753247023E-1,-6.453447342E-1,2.644805908E-1
5.399853150E1,-2.417322993E-1,-3.925845027E-1,4.197587967E-1
5.409853150E1,1.457454562E0,-1.884848952E0,-8.586788177E-2
5.419853150E1,9.875537157E-1,-4.718319476E-1,-1.433073997E0
5.429853150E1,8.530661464E-1,8.962842822E-1,-2.529160500E0
5.439853150E1,9.696102142E-2,3.009682894E-1,1.581286430E0
5.449853153E1,7.451115847E-1,1.185908318E-1,1.499657631E0
5.459853153E1,-5.300118327E-1,-1.709996700E0,-3.065109253E-2
5.469853153E1,-9.721308947E-2,-6.768897176E-1,-2.559503078E0
5.479853153E1,2.053384185E-1,3.302303553E-1,-2.432151318E0
5.489853153E1,2.565336227E-2,-3.976486325E-1,1.461452484E0
5.499853150E1,3.756800890E-1,3.209099770E-1,2.461696625E0
5.509853150E1,3.203188181E-1,-2.034757137E0,1.117147446E0
5.519853146E1,-2.395070195E-1,-7.919282317E-1,-2.453313351E0
5.529849813E1,1.733168066E-1,2.480410933E-1,-2.711934090E0
5.539846480E1,2.051361948E-1,-2.068818808E-1,1.210975647E-1
5.549843146E1,-1.179640889E-1,-8.164727688E-2,3.047488213E0
5.559839813E1,-5.467078090E-1,-1.265907168E0,1.230025291E0
5.569836393E1,7.645990849E-1,-8.757749200E-1,-7.829313278E-1
5.579833060E1,-3.735695481E-1,3.255954981E-1,-2.753746510E0
5.589829726E1,-5.308322906E-1,-6.615164876E-1,1.303441048E0
5.599826393E1,-9.567476511E-1,-7.352209091E-2,3.398030281E0
5.609823063E1,-1.155871153E0,-2.258267879E0,3.019218445E0
5.619819726E1,9.563502669E-2,-6.222453117E-1,-1.600111008E0
5.629816393E1,6.128467917E-1,4.727757573E-1,-2.905914307E0
5.639813059E1,4.156470299E-2,2.848520279E-1,-2.964420319E-1
5.649809722E1,-7.468905449E-1,-1.811304092E-1,3.017652512E0
5.659806389E1,-1.515556216E0,-2.363543272E0,3.696147919E0
5.669803056E1,3.889354467E-1,-1.246624708E0,-1.498047829E0
5.679799722E1,-3.949797750E-1,1.730112433E-1,-2.747466087E0
5.689796386E1,-6.970996857E-1,-3.507766128E-1,1.651645660E0
5.699793052E1,-6.362054348E-1,-5.363363624E-1,4.068124771E0
5.709789719E1,-3.613580465E-1,-2.282031059E0,3.005901337E0
5.719786382E1,1.345515549E-1,-9.013851285E-1,-1.092294693E0
5.729783049E1,2.990441322E-1,8.188551068E-1,-3.417479992E0
5.739779712E1,1.903173327E-1,2.770673633E-1,1.641044617E-1
5.749776379E1,-3.556662798E-2,-3.395025134E-1,2.898584366E0
5.759773045E1,-2.813732624E-2,-1.108756542E0,2.443175316E0
5.769769715E1,5.620326996E-1,-1.097622871E0,-1.134139061E0
5.779766382E1,-4.990987778E-1,4.247364402E-2,-2.476264954E0
5.789763048E1,4.831027985E-1,-9.229241610E-1,8.785247803E-2
5.799759718E1,-1.462583542E-1,-8.957654238E-2,1.990543365E0
5.809756385E1,6.092817783E-1,-1.700312495E0,3.966922760E0
5.819753052E1,1.322362900E0,-1.327340603E0,-5.511579514E-1
5.829753052E1,3.845301270E-2,1.007150412E-1,-2.063876152E0
5.839753048E1,3.896656334E-1,1.154396772E0,-2.666362286E0
5.849753048E1,-4.724591970E-2,-1.004469395E-2,2.118365288E0
5.859753048E1,1.122034788E-1,-6.878532171E-1,3.009069443E0
5.869753045E1,-1.795814037E-1,-1.877105951E0,1.038115501E0
5.879753045E1,-1.743755341E-1,8.406034112E-2,-1.853099823E0
5.889753045E1,7.507416010E-1,2.218022943E-1,-2.035950661E0
5.899753045E1,5.937352180E-1,-1.081803322E0,1.300666809E0
5.909753045E1,1.261474490E0,-5.610792637E-1,1.165851593E0
5.919753045E1,6.922349930E-1,-1.591171145E0,4.723110199E-1
5.929753045E1,5.473108888E-1,5.599052310E-1,-2.313789845E0
5.939753041E1,1.002113938E0,5.707869530E-1,-1.243596077E0
5.949753045E1,-8.018428087E-2,-1.980352998E-1,1.794528961E0
5.959753045E1,2.958804965E-1,-2.432705164E-1,2.028655052E0
5.969753045E1,-1.609281898E-1,-1.725931168E0,7.318983078E-1
5.979749711E1,-8.008624911E-1,-2.064642459E-1,-2.869148731E0
5.989746381E1,-2.675909996E-1,-7.358720899E-2,-1.332196236E0
5.999743048E1,-3.049495220E-1,-5.109866858E-1,1.481812477E0
6.009739724E1,7.125270963E-1,-2.450858951E-1,1.268200874E0
6.019736391E1,1.371795177E0,-1.299900055E0,1.181062698E0
6.029733068E1,6.210830808E-1,6.492443085E-1,-3.794830799E0
6.039729738E1,7.477984428E-1,4.097577929E-1,-1.961537361E0
6.049726404E1,1.429169774E-1,-4.255355895E-1,1.332488060E0
6.059723101E1,1.087599874E0,-1.941122413E-1,2.463274956E0
6.069719764E1,-5.775076747E-1,-1.045280337E0,5.525684357E-1
6.079716431E1,-5.905910134E-1,1.181708872E-1,-2.529832840E0
6.089713097E1,1.222296357E-1,2.354089618E-1,-2.233684063E0
6.099709764E1,-4.081256986E-1,-1.213133335E0,1.726258278E0
6.109641353E1,9.519867897E-1,-3.600260615E-1,1.628177643E0
6.119638020E1,6.199367642E-1,-1.478395700E0,1.473200798E0
6.129634687E1,7.616521716E-1,3.578425646E-1,-3.805259228E0
6.139631353E1,8.579945564E-2,3.179307580E-1,-2.002090454E0
6.149628020E1,3.075116277E-1,2.226521373E-1,1.447689056E0
6.159624686E1,7.537605166E-1,-8.958965540E-2,1.187845230E0
6.169618023E1,-7.285623550E-1,-1.822492599E0,8.330974579E-1
6.179611356E1,2.683975697E-1,-3.103346229E-1,-2.904023170E0
6.189604690E1,3.338903189E-2,1.501058936E-1,-1.070755959E0
6.199598020E1,4.965960979E-2,-6.345092058E-1,8.554220200E-1
6.209591373E1,2.772691846E-1,-4.574276209E-1,1.470645905E0
6.219584706E1,1.529015183E0,-1.616988897E0,1.114752769E0
6.229578039E1,9.927495122E-1,6.180385351E-1,-3.125431538E0
6.239571376E1,7.955071926E-1,6.372733712E-1,-1.925738811E0
6.249564726E1,-4.064952135E-1,-1.033705354E0,1.219691277E0
6.259558069E1,-1.654216051E-1,-1.017687321E-1,1.272286415E0
6.269551403E1,-5.977727175E-1,-1.340159655E0,2.569484711E-1
6.279548069E1,3.801202774E-1,1.726172566E-1,-2.367932796E0
6.289544736E1,-2.268238068E-1,1.763207316E-1,-1.523753166E0
6.299541399E1,2.114468813E-2,-1.015666246E0,1.043239594E0
6.309538056E1,1.835215688E-1,2.857132554E-1,1.764965057E0
6.319534726E1,3.310765922E-1,-1.773766756E0,2.528573990E0
6.329531382E1,7.527813911E-1,1.662386656E-1,-3.102110386E0
6.339528049E1,8.164094090E-1,6.185170412E-1,-2.751893044E0
6.349524716E1,2.862637639E-1,-7.974013686E-2,7.139072418E-1
6.359521376E1,-2.856248617E-1,2.610617876E-2,2.992396355E0
6.369518056E1,-9.220505953E-1,-1.054493666E0,1.709123611E0
6.379514722E1,2.696657777E-1,-4.014254808E-1,-2.132231712E0
6.389511389E1,-2.391082048E-2,7.452692986E-1,-2.989462852E0
6.399529842E1,-2.492632270E-1,-6.910790801E-1,1.037046432E0
6.409526508E1,-1.849753857E-1,2.800427675E-1,1.134431839E0
6.419523178E1,-1.596792936E0,-2.513536930E0,2.541000366E0
6.429519845E1,8.237225413E-1,-1.256781816E-2,-2.284201145E0
6.439516515E1,1.065224886E0,4.726281762E-1,-2.690640450E0
6.449513181E1,3.038614988E-1,1.206803918E-1,-9.248065948E-2
6.459509915E1,-1.052774191E-1,-4.781377316E-1,3.183754921E0
6.469509915E1,-1.211160779E0,-1.260494351E0,1.437894821E0
6.479509915E1,-1.812784672E-1,-6.100514531E-1,-1.555168152E0
6.489509931E1,-2.082876563E-1,4.031673372E-1,-3.011008263E0
6.499509931E1,-1.965580583E-1,-7.570551634E-1,1.024397850E0
6.509509911E1,-8.656727076E-1,-1.078113317E-1,3.456029892E0
6.519509915E1,-6.233057976E-1,-2.422967196E0,2.322760582E0
6.529509915E1,8.349676728E-1,-1.190297604E-1,-2.267997742E0
6.539509915E1,1.733251810E-1,4.488355517E-1,-2.025568008E0
6.549509898E1,-2.914798260E-2,4.989583492E-1,-5.440950394E-1
6.559509888E1,-2.968618870E-1,2.585442066E-1,4.514533043E0
6.569509888E1,-7.634352446E-1,-2.267057180E0,2.507073402E0
6.579509888E1,-2.426081896E-1,-1.312635064E0,-4.859228134E-1
6.589509888E1,-2.004418969E-1,3.082778156E-1,-3.186350822E0
6.599509888E1,1.211951375E-1,-4.371478558E-1,-1.039419174E-1
6.609509885E1,-5.080614090E-1,-7.962344885E-1,2.602401733E0
6.619509884E1,2.031778693E-1,-1.927324295E0,3.121562958E0
6.629509884E1,3.848264217E-1,-1.480473757E0,7.932691574E-1
6.639509884E1,4.323504865E-1,8.060798049E-1,-3.226076126E0
6.649509884E1,8.855050206E-1,8.513280153E-1,-5.455408096E-1
6.659509928E1,2.353735566E-1,-5.181602240E-1,3.217926979E0
6.669509914E1,-1.325310230E0,-2.103580952E0,4.370088577E0
6.679509914E1,-1.777708530E-2,-1.093945384E0,-6.044082642E-1
6.689509914E1,-3.286107779E-1,-3.905929923E-1,-2.371253967E0
6.699509914E1,-1.022955775E-1,-4.225483537E-2,-1.858942986E0
6.709509914E1,2.071964741E-2,-4.133934975E-1,9.826135635E-1
6.719509914E1,3.054192662E-1,-9.567185044E-1,2.221283913E0
6.729509914E1,7.617181540E-1,-1.629510283E0,7.260980606E-1
6.739509914E1,3.922830522E-1,1.022095680E-1,-2.689772129E0
6.749509914E1,3.423865438E-1,7.881000042E-1,-1.232826233E0
6.759509848E1,1.796023846E-1,6.491792202E-2,8.692893982E-1
6.769509848E1,2.698610723E-1,-3.783321381E-2,1.635521889E0
6.779509848E1,-6.164502501E-1,-1.240073800E0,2.018137932E0
6.789509831E1,1.640501618E-1,-3.120798767E-1,-2.432687759E0
6.799509831E1,-3.620862961E-2,1.409602165E-1,-3.337302685E0
6.809509831E1,-1.313436031E-1,-9.170514345E-1,5.717897415E-1
6.819509831E1,3.727639318E-1,-3.921836317E-1,1.927658081E0
6.829509838E1,2.465088367E-1,-1.473644733E0,2.222311020E0
6.839509838E1,4.881819487E-1,2.218552530E-1,-1.707727432E0
6.849509838E1,8.545416594E-1,2.761150599E-1,-2.768161774E0
6.859509904E1,6.314336658E-1,-1.858168840E-1,2.579240799E-1
6.869509904E1,7.681941986E-2,-4.034621716E-1,2.016766548E0
6.879509904E1,-4.433039427E-1,-1.650717735E0,1.608169556E0
6.889509904E1,-1.713361144E-1,-1.034836054E0,-1.405059814E0
6.899509908E1,-3.074541688E-1,1.209649444E-1,-2.091437817E0
6.909509911E1,5.877482891E-2,3.031146526E-2,-2.235155106E-1
6.919509911E1,-1.331366748E-1,2.358307838E-1,1.854196548E0
6.929509911E1,3.462956548E-1,-1.838573694E0,2.489056587E0
6.939509911E1,4.035648108E-1,-3.587365150E-1,-1.274620056E0
6.949509911E1,4.668751359E-1,3.204884529E-1,-2.942653179E0
6.959509864E1,3.380119503E-1,2.314481735E-1,-8.205938339E-1
6.969509877E1,3.007747829E-1,2.852659225E-1,2.483133316E0
6.979509877E1,-1.893705726E-1,-1.103536606E0,2.216937065E0
6.989509877E1,-3.617183864E-1,-1.440516233E0,-6.030101776E-1
6.999509877E1,-3.890737891E-2,-2.097868919E-2,-3.216855526E0
7.009509877E1,-9.262832999E-2,-3.239744306E-1,-9.122381210E-1
7.019509877E1,-2.765077353E-2,1.005342007E-1,2.992293358E0
7.029509877E1,3.128300607E-1,-1.596918464E0,2.244374275E0
7.039509877E1,3.972386718E-1,-8.913863897E-1,-9.172792435E-1
7.049509877E1,4.601971507E-1,6.811464429E-1,-2.560494423E0
7.059509854E1,7.362710238E-1,6.196376085E-1,-2.914867401E-1
7.069509854E1,3.680470884E-1,9.013628960E-2,1.885014534E0
7.079509854E1,-6.367855072E-1,-1.692810655E0,2.884272575E0
7.089509854E1,-2.346823215E-1,-1.098345160E0,-8.887758255E-1
7.099509854E1,4.253816605E-2,1.653623581E-2,-2.978118896E0
7.109509854E1,2.142397165E-1,1.878938079E-1,-1.208269119E0
7.119509854E1,-2.968032956E-1,1.692888141E-1,2.130858421E0
7.129509847E1,-1.129299402E-2,-1.646598101E0,2.904420853E0
7.139509847E1,4.821844399E-1,-9.696800113E-1,-7.196998596E-2
7.149509857E1,4.891623259E-1,3.587827981E-1,-2.197967529E0
7.159509791E1,5.008553267E-1,1.199285388E-1,-1.031629562E0
7.169509791E1,9.888833761E-2,-2.979944944E-1,2.279210091E0
7.179509791E1,-6.641062498E-1,-1.820092440E0,2.511015892E0
7.189509791E1,-3.047559261E-1,-1.074338555E0,9.057903290E-2
7.199509787E1,-2.788472772E-1,-9.706199169E-3,-2.490037918E0
7.209509787E1,2.017322779E-1,1.152741909E-1,-1.713046074E0
7.219509787E1,-4.075630307E-1,-3.907201290E-1,1.593511581E0
7.229509787E1,-3.915156722E-1,-1.522191405E0,3.175855637E0
7.239509787E1,2.887539864E-1,-1.542109370E0,1.039944649E0
7.249509787E1,2.772643566E-1,2.356842160E-1,-2.389313698E0
7.259509767E1,4.282470942E-1,5.021139383E-1,-1.914314747E0
7.269509754E1,4.045377374E-1,-3.682883978E-1,1.329486847E0
7.279509754E1,-2.810046673E-1,-9.719694853E-1,2.770999908E0
7.289509764E1,1.089012623E-2,-1.314188123E0,9.162597656E-1
7.299509767E1,-3.743309975E-1,-2.673320174E-1,-2.535739422E0
7.309509767E1,-1.066181511E-1,-1.801625490E-1,-1.383605957E0
7.319509767E1,2.393241376E-1,-1.103513956E0,2.080311775E0
7.329509767E1,7.915012538E-2,-1.083069086E0,2.988288879E0
7.339509767E1,5.657450557E-1,-1.448893666E0,3.515911102E-1
7.349509767E1,4.650108218E-1,1.877757907E-1,-2.370447636E0
7.359509790E1,9.102766514E-1,9.121910334E-1,-2.132166862E0
7.369509790E1,6.200734377E-1,1.382637620E-1,1.775310516E0
7.379509790E1,-1.699069142E-1,-1.085279942E0,2.881547928E0
7.389509790E1,-3.544521332E-2,-1.174492359E0,4.471206665E-1
7.399492298E1,-1.905030012E-2,-1.160655916E-1,-2.271960735E0
7.409492299E1,3.173933625E-1,6.269627810E-2,-1.688731194E0
7.419492298E1,-1.071659327E-1,-9.667264223E-1,1.328907967E0
7.429492305E1,-1.732173562E-2,-1.031215549E0,2.543626785E0
7.439492305E1,9.479204416E-1,-1.242690325E0,3.171911240E-1
7.449492295E1,1.543234289E-1,1.700359583E-1,-2.190083504E0
7.459492295E1,3.644338250E-1,5.093085766E-2,-5.787115097E-1
7.469492295E1,5.457955003E-1,-1.951164007E-1,1.339363098E0
7.479492295E1,3.728668988E-1,-1.015502930E0,2.677019119E0
7.489492295E1,-1.498867273E-1,-1.519782305E0,8.991289139E-1
7.499492295E1,-3.291969299E-1,-3.244942725E-1,-2.242509365E0
7.509492295E1,-2.391866148E-1,4.112553596E-2,-1.840816498E0
7.519492295E1,-1.915180385E-1,-4.394590855E-1,1.082627296E0
7.529492295E1,6.614069343E-1,-4.631384909E-1,2.588269234E0
7.539492295E1,6.749617457E-1,-1.374370575E0,7.703104019E-1
7.549492295E1,-1.223638058E-1,-3.041032851E-1,-2.002940178E0
7.559492295E1,3.219782710E-1,3.009402156E-1,-2.295823574E0
7.569492295E1,8.221396804E-2,-2.997926474E-1,8.997688293E-1
7.579492295E1,2.487850189E-2,-4.762011766E-1,1.874243736E0
7.589492285E1,-2.851447463E-1,-1.653346419E0,1.988605499E0
7.599492282E1,-1.636959910E-1,7.187607884E-2,-1.970298767E0
7.609492282E1,-8.207881451E-2,3.483089805E-1,-2.303718567E0
7.619492278E1,3.231649399E-1,-8.144968748E-1,7.900896072E-1
7.629492278E1,5.832191706E-1,-6.522062421E-1,2.111165047E0
7.639492278E1,7.958800793E-1,-1.369602799E0,1.603436470E0
7.649492305E1,3.311045766E-1,-4.009651840E-1,-1.850023270E0
7.659492305E1,4.595527649E-1,5.531692505E-2,-2.754052162E0
7.669492305E1,1.326276064E-1,-7.041847706E-2,5.853853226E-1
7.679492305E1,2.783532739E-1,2.320110798E-1,2.074334145E0
7.689492305E1,-1.308792830E-1,-2.226270199E0,2.235886574E0
7.699492302E1,-3.315988779E-1,-1.319689155E-1,-3.549410820E0
7.709492302E1,-8.109852672E-2,3.074824810E-2,-1.515988350E0
7.719492298E1,2.050381899E-2,-6.567024589E-1,2.238265038E0
7.729492291E1,8.921681643E-1,-1.582765579E-1,9.575977325E-1
7.739492291E1,5.465154648E-1,-2.663015842E0,1.542536736E0
7.749492301E1,6.012147069E-1,1.478966475E-1,-3.737986565E0
7.759492301E1,1.258760393E-1,5.027949214E-1,-2.122918606E0
7.769492301E1,1.220351458E-1,-2.163805962E-1,2.501367569E0
7.779492301E1,8.543903232E-1,-7.193455696E-1,2.486107826E0
7.789492301E1,-1.652770638E-1,-2.478467941E0,1.692123413E0
7.799492301E1,4.820607901E-1,4.991504550E-1,-3.431469917E0
7.809492301E1,4.058379531E-1,4.996538758E-1,-2.889342308E0
7.819492298E1,1.774179935E-2,-5.956205130E-1,1.326724052E0
7.829492305E1,4.070030451E-1,-4.284829497E-1,1.779987335E0
7.839492305E1,1.418207645E0,-1.241002440E0,4.472551346E-1
7.849492305E1,6.165126562E-1,-1.366305351E-2,-3.001945496E0
7.859492305E1,9.575596452E-1,7.166577578E-1,-2.009466171E0
7.869492305E1,6.671380997E-2,-5.583875179E-1,2.178540230E0
7.879492305E1,5.030738711E-1,-2.165896893E-1,2.158683777E0
7.889492305E1,-5.654543042E-1,-1.750911951E0,1.121282578E0
7.899492305E1,3.640980721E-1,-2.556105852E-1,-3.409538269E0
7.909492301E1,4.534339011E-1,1.872016191E-1,-2.019940376E0
7.919492305E1,2.734985352E-1,-8.407452703E-1,1.407916069E0
7.929492304E1,1.879209280E-2,-2.424614429E-1,1.117355347E0
7.939492304E1,9.870169163E-1,-1.456800938E0,9.594745636E-1
7.949492278E1,7.481389046E-1,2.063407898E-1,-2.885778427E0
7.959492344E1,1.016151786E0,2.491158247E-1,-2.679668427E0
7.969492341E1,4.171557724E-1,-8.327931166E-1,1.743397713E0
7.979492341E1,3.509223461E-2,4.515746832E-1,2.221541405E0
7.989492344E1,-7.027910948E-1,-1.606568813E0,-1.510944366E-1
7.999492344E1,-2.974963784E-1,-8.168891668E-1,-1.853800297E0
8.009492344E1,5.137114525E-1,-3.632616997E-2,-1.150291443E0
8.019492344E1,5.547451973E-2,-7.099980116E-1,6.523485184E-1
8.029492344E1,-7.502959371E-1,2.951004505E-1,2.448960304E0
8.039492344E1,-9.519539475E-1,-1.534321070E0,2.709646225E0
8.049492338E1,2.283636332E-1,-2.915703654E-1,-2.925904751E0
8.059492338E1,8.527854681E-1,5.701007247E-1,-3.233098030E0
8.069492338E1,-1.929858923E-1,-2.790454626E-1,6.852235794E-1
8.079492338E1,-7.642298937E-1,-3.211068511E-1,3.808147430E0
8.089492338E1,-1.376757860E0,-1.633976460E0,1.359318733E0
8.099492311E1,-1.925861835E-2,-8.289269805E-1,-8.202228546E-1
8.109492311E1,-3.219510317E-1,4.961734414E-1,-2.840981007E0
8.119474175E1,-4.465937018E-1,-7.487773895E-1,4.340229034E-1
8.129474195E1,-6.093294621E-1,-5.074392557E-1,2.898552895E0
8.139474195E1,-8.834041357E-1,-2.328127861E0,2.699442863E0
8.149474198E1,-9.620919824E-2,-4.297947884E-2,-1.672981262E0
8.159474198E1,7.298549414E-1,1.170552969E0,-2.828100681E0
8.169474198E1,-2.851986289E-1,-1.775694489E-1,1.317658424E0
8.179474198E1,1.589590311E-1,-1.050402045E0,3.702881813E0
8.189474198E1,-5.855321884E-1,-1.501791716E0,2.039377213E0
8.199474198E1,2.266648710E-1,-7.262109518E-1,-1.455927849E0
8.209474202E1,-2.270200253E-1,2.269791961E-1,-2.953732967E0
8.219474198E1,-2.135027349E-1,-5.315997005E-1,4.112110138E-1
8.229474198E1,-3.059090972E-1,-4.888717234E-1,2.627874374E0
8.239474198E1,9.359129667E-1,-1.443163872E0,2.463740349E0
8.249474202E1,5.594173670E-1,-1.080212235E0,-5.448808670E-1
8.259474135E1,4.030639529E-1,9.360198379E-1,-3.495817184E0
8.269474141E1,1.418068409E-1,4.090154171E-1,-4.812870026E-1
8.279474141E1,-2.641818523E-1,-9.157469273E-1,2.435275078E0
8.289474135E1,3.216875196E-1,-1.201545000E0,3.393696785E0
8.299474135E1,3.537368476E-1,-1.536524773E0,5.779361725E-1
8.309474135E1,2.166726291E-1,-1.092545986E-1,-3.305977821E0
8.319474135E1,1.987685263E-1,-2.428495884E-1,-1.168486595E0
8.329474135E1,-5.218559504E-1,-1.021276593E0,2.604454041E0
8.339474135E1,6.913510561E-1,-7.977553606E-1,2.022574425E0
8.349474131E1,3.203319907E-1,-2.317476511E0,1.988796234E0
8.359474131E1,5.348198414E-1,3.113511205E-1,-3.140653610E0
8.369474131E1,5.544601679E-1,2.671046257E-1,-1.215476990E0
8.379474131E1,2.325757742E-1,-3.121642470E-1,1.641019821E0
8.389474131E1,1.656203270E-1,1.242126226E-1,1.453854561E0
8.399467686E1,-6.172548532E-1,-2.047767162E0,5.516004562E-1
8.409467686E1,4.740214348E-2,-1.611455232E-1,-2.036336899E0
8.419467686E1,8.787459135E-2,2.139371932E-1,-1.963689327E0
8.429467660E1,-2.473830581E-1,-5.069346428E-1,1.977202415E0
8.439467660E1,1.265419483E0,5.490440726E-1,8.307180405E-1
8.449467656E1,1.914140463E0,-2.339662552E0,6.061525345E-1
8.459467656E1,1.282486916E-1,-1.906651258E-2,-3.413989067E0
8.469467653E1,8.970201015E-1,6.141104102E-1,-2.478886127E0
8.479467653E1,2.000486255E-1,2.956730127E-2,1.324424744E0
8.489467653E1,1.125850677E-1,-4.865054488E-1,2.802850723E0
8.499467653E1,-8.546127081E-1,-1.585128784E0,1.206448555E0
8.509467653E1,-8.379602432E-2,-4.086452723E-1,-2.492804527E0
8.519467656E1,-6.385678053E-2,4.972001314E-1,-2.735134125E0
8.529467656E1,-5.020996928E-1,-8.467541337E-1,1.687999725E0
8.539467656E1,-4.363364577E-1,-4.115664959E-2,1.513655663E0
8.549467653E1,4.608155787E-1,-2.607774734E0,1.907544136E0
8.559467653E1,5.472412109E-1,-1.083403826E-2,-2.565367699E0
8.569467663E1,8.317413926E-1,9.294404387E-1,-3.072808743E0
8.579467663E1,-1.430082321E-1,-1.399046183E-1,1.301510811E0
8.589467666E1,-5.187941790E-1,-1.541233063E-1,2.791721344E0
8.599464333E1,-1.273844838E0,-1.781308174E0,1.943035126E0
8.609460999E1,3.950059414E-2,-7.293005586E-1,-1.780089855E0
8.619454336E1,8.022379875E-2,4.646800756E-1,-2.872551918E0
8.629447669E1,8.213198185E-2,-6.425879002E-1,6.626319885E-2
8.639441002E1,-2.404882908E-1,3.254009485E-1,2.776864052E0
8.649434346E1,1.176565886E-2,-2.752630472E0,1.581521988E0
8.659427746E1,3.473495841E-1,-1.670837998E-1,-2.186846733E0
8.669421076E1,8.064894676E-1,9.657133818E-1,-2.880061626E0
8.679414409E1,-1.824893951E-1,2.261567116E-1,7.986764908E-1
8.689407742E1,-4.493001699E-1,-3.032598495E-1,3.451774597E0
8.699401076E1,-1.273231864E0,-1.895737886E0,1.859769821E0
8.709394409E1,2.862506509E-1,-1.373082995E0,-1.549941063E0
8.719387746E1,-2.377563715E-2,2.827308476E-1,-2.373915195E0
8.729381079E1,-3.702819347E-3,-3.859014809E-1,1.307783127E-1
8.739374412E1,-1.108332038E0,-8.609704971E-1,2.520773888E0
8.749367745E1,-5.913138390E-3,-2.659189701E0,3.808468819E0
8.759361082E1,3.371776342E-1,-3.807967305E-1,-7.924661636E-1
8.769354419E1,4.367489815E-1,9.906038642E-1,-3.670711040E0
8.779344415E1,1.103774309E0,4.501100183E-1,-1.465215683E0
8.789334412E1,-2.064937353E-1,-7.028554082E-1,3.940838814E0
8.799324412E1,-5.479741693E-1,-2.133592129E0,3.836480141E0
8.809314422E1,2.944886684E-2,-8.884569407E-1,-1.474119186E0
8.819304422E1,-3.957444429E-1,1.350491345E-1,-2.960729122E0
8.829294422E1,5.424568057E-1,-1.827435791E-1,-7.104597092E-1
8.839284422E1,-9.104431868E-1,-8.436290622E-1,3.493368149E0
8.849274422E1,-1.391638756E0,-2.512046337E0,4.609752655E0
8.859264422E1,6.244409084E-1,4.236340523E-2,-1.609858513E0
8.869254408E1,7.462503910E-1,8.234475851E-1,-4.071511745E0
8.879244405E1,3.364109993E-2,-6.590425968E-2,-7.644023895E-1
8.889234405E1,4.314356744E-1,-1.389155388E0,3.995334625E0
8.899227738E1,4.141726196E-1,-1.420881510E0,3.135337830E0
8.909221078E1,9.836405516E-2,-1.538029313E0,3.219041824E-1
8.919217745E1,-1.064954698E-1,3.182352781E-1,-3.278352261E0
8.929214415E1,-8.320923150E-2,-6.198465824E-1,-3.705682755E-1
8.939211082E1,-7.276100516E-1,-4.323068261E-1,2.556887627E0
8.949207738E1,-6.555645466E-1,-2.266420364E0,7.943124771E-1
8.959204315E1,4.212103486E-1,-1.738753438E0,3.916130066E-1
8.969201008E1,9.002182484E-1,4.190297723E-1,-2.250194073E0
8.979197671E1,5.173326731E-1,4.515384436E-1,-2.136031628E0
8.989194345E1,5.260013342E-1,-9.745377302E-2,2.282000542E0
8.999191011E1,-2.862759829E-1,-2.246600389E-1,4.248504639E-1
9.009187701E1,8.327841759E-3,-8.627744913E-1,8.648576736E-1
9.019184368E1,-4.450935125E-2,3.760191500E-1,-2.849488735E0
9.029181038E1,2.055026889E-1,3.924224973E-1,-2.905241489E0
9.039177704E1,8.904153109E-2,-1.371344686E0,5.503206253E-1
9.049174371E1,5.555083752E-1,-1.077328801E0,1.545323372E0
9.059171034E1,1.691697478E0,-1.660931706E0,2.221195221E0
9.069167701E1,6.111704111E-1,6.632546782E-1,-2.942951679E0
9.079167701E1,7.273035645E-1,1.271250367E0,-2.730982304E0
9.089167701E1,6.064498425E-2,-5.130546689E-1,1.803194046E0
9.099167701E1,1.135177374E0,-1.181207299E0,3.369853020E0
9.109167691E1,-2.138345242E-1,-1.645023465E0,1.184719086E0
9.119167691E1,-1.548908651E-1,2.264216542E-1,-2.517992973E0
9.129167694E1,-3.189602494E-1,-9.341418743E-1,2.193632126E-1
9.139167694E1,4.769386053E-1,-1.557043314E0,7.990608215E-1
9.149167694E1,4.298579395E-1,-4.374836683E-1,5.905056000E-1
9.159167761E1,1.776441336E0,-1.295447707E0,1.208824158E0
9.169167761E1,6.027896404E-1,2.835312188E-1,-2.637581825E0
9.179167761E1,4.575868249E-1,1.076952219E0,-2.977757454E0
9.189167761E1,-5.598092079E-2,-5.766537189E-1,1.687314034E0
9.199167764E1,1.022825956E0,-1.984531879E-1,2.164196968E0
9.209167757E1,-2.238296866E-1,-1.291974545E0,1.080286026E0
9.219167757E1,-3.687503934E-1,1.294488907E-1,-3.106224060E0
9.229167754E1,4.244430065E-1,1.017210484E-1,-2.665964127E0
9.239167754E1,2.666255832E-2,-1.305390835E0,1.391167641E0
9.249167754E1,6.492424011E-1,-2.043151259E-1,9.444217682E-1
9.259167777E1,1.843733072E0,-1.541612864E0,1.229735374E0
9.269167754E1,7.785656452E-1,2.993045449E-1,-1.966226578E0
9.279167754E1,6.821202636E-1,1.264198422E0,-3.191413879E0
9.289167747E1,5.182789564E-1,-2.516692579E-1,1.680997849E0
9.299167747E1,1.019416928E0,-1.207237244E-1,1.664430618E0
9.309167724E1,-2.207013369E-1,-1.599355221E0,5.451374054E-1
9.319167724E1,-8.820140362E-2,1.255366206E-1,-3.253663540E0
9.329167720E1,8.229712248E-1,5.003444552E-1,-2.375335693E0
9.339167720E1,2.124804556E-1,-1.332758188E0,1.236695290E0
9.349167730E1,8.739751577E-2,5.625056028E-1,7.355785370E-1
9.359167730E1,5.616175532E-1,-1.888775826E0,1.509490967E0
9.369167730E1,6.075014472E-1,1.952322125E-1,-3.240824223E0
9.379167730E1,1.159829021E0,6.538790464E-1,-2.941032410E0
9.389167734E1,7.543694973E-2,-3.998734951E-1,1.718406677E0
9.399167734E1,1.214214325E0,3.235486746E-1,1.749815941E0
9.409135997E1,-5.837973356E-1,-1.769495010E0,6.130018234E-1
9.419135997E1,3.619105220E-1,-2.079330087E-1,-3.521993637E0
9.429136004E1,3.449502587E-1,7.988393307E-3,-1.773725033E0
9.439136004E1,7.156640291E-2,-1.244645834E0,1.696189880E0
9.449136004E1,-6.629990935E-1,-5.431940556E-1,2.589883804E-1
9.459135920E1,2.383572102E0,-9.430959225E-1,5.439157486E-1
9.469135920E1,1.994794011E-1,5.485598743E-2,-2.168530464E0
9.479135920E1,6.482897997E-1,4.571320415E-1,-1.270733833E0
9.489135920E1,4.678177834E-1,-9.865456820E-2,5.788249969E-1
9.499135917E1,-5.340996385E-1,1.885303855E-1,2.149470329E0
9.509135917E1,-8.018907309E-1,-1.579609156E0,4.908189774E-1
9.519135914E1,-8.946579695E-2,-4.287093878E-1,-1.945209026E0
9.529135917E1,-5.382879972E-1,3.841750324E-1,-1.713685036E0
9.539135917E1,-2.516011000E-1,-4.947714508E-1,7.666063309E-1
9.549135920E1,-3.341395259E-1,-5.780025721E-1,2.771077156E0
9.559135920E1,3.688406348E-1,-1.331365824E0,9.461269379E-1
9.569135920E1,-7.481882572E-1,-8.719575405E-1,2.961063385E-1
9.579135920E1,8.677816987E-1,7.847601175E-1,-2.280724525E0
9.589135920E1,1.716189384E-1,4.366219640E-1,-1.966857910E-2
9.599135920E1,1.057248712E-1,-3.450031877E-1,3.820671082E0
9.609135920E1,-1.559136510E0,-1.936510563E0,2.777090073E0
9.619135920E1,-1.048034430E-1,-4.462816417E-1,-9.109249115E-1
9.629135923E1,-2.275454998E-1,2.569552660E-1,-3.068848610E0
9.639135923E1,3.681344986E-1,-3.899157345E-1,-2.806730270E-1
9.649135913E1,1.365706325E-1,-5.354292393E-1,2.232191086E0
9.659135980E1,7.111763954E-1,-1.312689424E0,1.859379768E0
9.669135977E1,1.366407394E0,-1.162504196E0,-1.121781349E0
9.679135977E1,6.591017246E-1,4.242585897E-1,-2.238624096E0
9.689135977E1,9.911584854E-1,8.357169628E-1,-1.034628868E0
9.699135977E1,2.658510208E-1,-6.585097313E-2,1.581300735E0
9.709135977E1,8.172398210E-1,-6.775326729E-1,2.192877769E0
9.719135977E1,1.182773709E-1,-1.510065317E0,-1.013936996E-1
9.729135967E1,-7.967763543E-1,1.251681745E-1,-2.465431690E0
9.739135967E1,6.022632718E-1,3.907555342E-1,-1.463482857E0
9.749135967E1,1.117856801E-1,-9.617266059E-1,1.751480103E0
9.759135960E1,2.438153327E-1,-2.320711017E-1,1.248050690E0
9.769135960E1,1.806656480E0,-1.417529941E0,6.758890152E-1
9.779135960E1,-1.739475131E-1,2.662154734E-1,-3.179158211E0
9.789135967E1,1.036178827E0,8.094894886E-1,-2.816929817E0
9.799135966E1,5.039182901E-1,-4.561855793E-1,1.619473457E0
9.809135967E1,4.947594404E-1,4.176048040E-1,7.188739777E-1
9.819135970E1,-1.200106740E0,-2.078869104E0,8.747301102E-1
9.829135966E1,-4.544466734E-2,-1.464056373E-1,-2.801048756E0
9.839135966E1,-2.902209759E-2,2.064931989E-1,-1.866617203E0
9.849135963E1,-1.058619022E-1,-3.634649217E-1,-1.851930618E-1
9.859135963E1,-7.641438842E-1,3.593468070E-1,3.133471489E0
9.869135963E1,-5.790734291E-2,-1.917868495E0,2.830674171E0
9.879135963E1,3.945733607E-2,-4.232551455E-1,-1.207217216E0
9.889135963E1,1.000601649E-1,7.937801480E-1,-1.381926537E0
9.899135963E1,2.888001800E-1,2.447988391E-1,-4.437570572E-1
9.909135963E1,-3.197987080E-1,-7.065616846E-1,3.006021500E0
9.919135963E1,-9.235159755E-1,-2.009851694E0,3.446622849E0
9.929135960E1,-7.037331462E-1,-8.106192350E-1,7.172660828E-1
9.939135960E1,-5.597081184E-1,5.250287056E-2,-3.377211571E0
9.949132626E1,7.351891398E-1,-6.152170897E-1,-9.456834793E-1
9.959129226E1,-4.250242114E-1,3.589004278E-2,2.090425491E0
9.969125896E1,2.779503167E-1,-2.183643103E0,3.433383942E0
9.979122563E1,-3.382908106E-1,-1.421254039E0,1.051604271E0
9.989119229E1,4.213891923E-1,1.210837483E0,-3.614476681E0
9.999115896E1,9.103168845E-1,5.857732296E-1,-1.076375961E0
1.000911256E2,-1.047823429E-1,-8.804754615E-1,3.638807297E0
1.001910923E2,1.210585833E-1,-8.938575387E-1,2.830589294E0
1.002910590E2,-2.397732735E-1,-1.793469071E0,3.008041382E-1
1.003910256E2,6.819117069E-2,7.042543888E-1,-4.170430660E0
1.004909923E2,4.955543578E-1,-9.822553396E-2,-8.835506439E-2
1.005909592E2,-2.653574944E-1,-1.055882692E0,2.478738785E0
1.006909259E2,7.724787593E-1,-2.156826258E0,1.975276947E0
1.007908925E2,1.560514688E0,-1.430174708E0,-3.659162521E-1
1.008908591E2,5.652045608E-1,6.886708736E-1,-3.301963806E0
1.009908258E2,7.554972172E-1,4.754464030E-1,-1.788156033E0
1.010907926E2,3.225055933E-1,-2.147752047E-2,1.463576317E0
1.011900255E2,1.119267583E0,-2.769021988E-1,2.869974136E0
1.012899923E2,3.074401617E-1,-1.593624949E0,2.535820007E-3
1.013899590E2,4.039465785E-1,-3.641407192E-1,-2.851816654E0
1.014899257E2,8.904451132E-1,9.681442380E-1,-2.719105244E0
1.015898924E2,-2.858181000E-1,-1.081697941E0,1.986069679E0
1.016898590E2,3.351542950E-1,-3.120322824E-1,1.655112267E0
1.017898257E2,1.552352309E-1,-1.054095864E0,-1.129288673E0
1.018897924E2,-6.460517049E-1,2.120376825E-1,-1.830239296E0
1.019897590E2,8.236374855E-1,1.074935079E0,-2.274959087E0
1.020897257E2,5.375453830E-1,-2.691582441E-1,1.019821167E-1
1.021896923E2,1.007272005E0,-7.451220155E-1,8.438377380E-1
1.022896590E2,-9.023048878E-1,-1.917252183E0,1.373916626E0
1.023896257E2,-2.642907500E-1,-1.522034556E-1,-2.873225212E0
1.024896257E2,5.841175318E-1,2.091302872E-1,-2.239333630E0
1.025895924E2,3.039127588E-1,-1.089851260E-1,8.328456879E-1
1.026895590E2,5.998659134E-1,-3.968143463E-2,1.411695480E0
1.027895257E2,2.295458317E-1,-1.897224665E0,3.797454834E-1
1.028894925E2,2.593278885E-1,2.065093517E-1,-2.521017551E0
1.029894592E2,1.006867409E0,1.139286876E0,-3.039725780E0
1.030894258E2,2.929708362E-1,-3.076062500E-1,1.028949738E0
1.031893925E2,9.336431026E-1,-6.585113406E-1,1.300173759E0
1.032893602E2,-2.668679953E-1,-1.228429317E0,2.520865440E0
1.033893268E2,-4.931174517E-1,1.145824939E-1,-2.189852715E0
1.034892935E2,8.198586106E-1,1.411446631E-1,-3.423349857E0
1.035892605E2,-5.122370720E-1,-1.182679534E0,6.074829102E-1
1.036892273E2,1.589884460E-1,2.386464477E-1,9.806518555E-1
1.037891939E2,3.239548504E-1,-1.906958818E0,1.064213753E0
1.038891615E2,-5.981725454E-2,-3.235847354E-1,-1.859554291E0
1.039891281E2,7.566083670E-1,1.107519388E0,-2.784561634E0
1.040890947E2,1.357996464E-2,-2.367863953E-1,1.327475548E0
1.041889881E2,-4.064971209E-1,-2.801710367E-1,3.154312134E0
1.042889546E2,-1.357684851E0,-2.119137049E0,1.800418854E0
1.043889212E2,6.408268809E-1,-5.922364593E-1,-2.110249519E0
1.044888879E2,3.268539906E-3,3.602053523E-1,-3.047963142E0
1.045888545E2,-4.471772909E-1,-1.467872620E0,7.152242661E-1
1.046888212E2,-5.644779205E-1,-4.438026547E-1,1.662713051E0
1.047887879E2,-3.842635155E-1,-2.149643898E0,6.146589279E0
1.048887545E2,4.813644290E-1,-2.202099413E-1,-1.355282784E0
1.049887212E2,1.192331791E0,8.695949316E-1,-4.727200985E0
1.050886879E2,1.013588667E0,3.325373232E-1,-3.795099258E-1
1.051886546E2,1.010761857E-1,-6.280775666E-1,4.243444443E0
1.052886212E2,-6.675168276E-1,-1.506330967E0,2.087653160E0
1.053885879E2,5.348806381E-1,-2.045846939E0,-7.305650711E-1
1.054885545E2,3.580075502E-1,5.088868141E-1,-3.888869286E0
1.055885543E2,8.310956359E-1,2.152845263E-2,-1.091140747E0
1.056885544E2,-1.278058589E-1,-8.060833812E-1,2.791207314E0
1.057885544E2,5.575986505E-1,-2.162539959E0,4.358433723E0
1.058885543E2,3.074167967E-1,-1.530777574E0,2.911100388E-1
1.059885543E2,5.264220238E-1,1.157716036E0,-4.808359623E0
1.060885543E2,3.699790537E-1,2.728055716E-1,-1.451338768E0
1.061885543E2,2.787278295E-1,-8.374429941E-1,3.071765900E0
1.062885533E2,2.499365807E-2,-2.144141197E0,5.185293198E0
1.063885533E2,3.816618323E-1,-2.427065074E-1,-7.638912201E-1
1.064885533E2,2.699283957E-1,4.444516003E-1,-3.447416306E0
1.065885530E2,2.145850658E-2,-6.318563223E-2,-1.423907280E0
1.066885529E2,2.257874012E-1,-7.354024649E-1,2.332367897E0
1.067885529E2,8.141690493E-2,-2.290232658E0,3.734029770E0
1.068885520E2,1.212574124E0,-1.406152964E0,-2.791566849E-1
1.069885520E2,1.145028353E0,8.938336968E-1,-3.239456177E0
1.070885520E2,6.158400774E-1,5.043688416E-1,-1.452105522E0
1.071885520E2,5.979347229E-1,-4.347305894E-1,2.088512421E0
1.072885520E2,8.398624659E-1,-2.043368220E-1,1.801687241E0
1.073885520E2,7.875400782E-1,-1.161987066E0,6.837902069E-1
1.074885520E2,4.639291167E-1,-1.640861779E-1,-3.581172466E0
1.075885520E2,2.720497847E-1,-4.206633568E-2,-1.197183609E0
1.076885520E2,3.137075901E-1,-5.917384028E-1,2.254990578E0
1.077885521E2,1.097337961E0,-1.264996767E0,2.429464340E0
1.078885521E2,7.492936254E-1,-1.271953106E0,6.561737061E-1
1.079885521E2,1.001744270E0,7.783781290E-1,-3.956576824E0
1.080885521E2,1.049853921E0,6.711566448E-1,-2.087477207E0
1.081885521E2,1.463603377E-1,-7.698861361E-1,3.090882301E0
1.082885521E2,2.757018805E-1,-1.264914513E0,3.379576683E0
1.083885521E2,2.291334867E-1,-9.998325706E-1,-7.868480682E-1
1.084885521E2,-3.216636181E-2,-1.073866785E-1,-2.650076866E0
1.085885521E2,9.607024193E-1,6.113177538E-1,-2.400486469E0
1.086885520E2,4.679605961E-1,-1.001266003E0,1.519608498E0
1.087885520E2,1.242719293E0,-2.038420439E-1,1.231718063E0
1.088885521E2,6.633273959E-1,-1.725819826E0,1.611344337E0
1.089885521E2,-6.099978685E-1,2.156102657E-2,-3.627103806E0
1.090885521E2,1.044091940E0,8.138272762E-1,-3.465739250E0
1.091885521E2,5.904703736E-1,1.941273212E-1,7.367038727E-1
1.092885521E2,1.152333021E0,-1.012232304E-1,2.058950424E0
1.093885521E2,2.972344756E-1,-1.291451693E0,1.691347122E0
1.094885521E2,1.310809255E-1,-9.239587784E-1,-2.628871918E0
1.095885521E2,2.731648088E-1,3.970798850E-1,-2.588008404E0
1.096885521E2,8.533546925E-1,-8.125990629E-2,8.592691422E-1
1.097885521E2,8.913879991E-1,-4.720431566E-2,9.590644836E-1
1.098885521E2,7.699609995E-1,-1.977160692E0,2.795963287E-1
1.099885521E2,5.091992617E-1,6.009563804E-3,-2.959865570E0
1.100885521E2,9.045033455E-1,9.201988578E-1,-1.896299839E0
1.101885521E2,-2.925850153E-1,-3.834755421E-1,1.338549614E0
1.102885521E2,-1.836117506E-1,-4.203820229E-2,1.372041702E0
1.103885521E2,-9.515963793E-1,-1.577357769E0,4.706354141E-1
1.104885521E2,3.904916942E-1,1.116156578E-3,-3.326306820E0
1.105885521E2,-4.785016179E-1,4.168905914E-1,-2.893264294E0
1.106885520E2,2.008805871E-1,-6.790385246E-1,1.219603539E0
1.107885520E2,-6.892836094E-1,1.670446396E-1,2.384475708E0
1.108885520E2,-6.523234844E-1,-1.948561668E0,1.288438797E0
1.109885520E2,-1.195008755E-1,-2.294515818E-1,-2.383091927E0
1.110885529E2,9.656872749E-1,9.906524420E-1,-3.185323715E0
1.111885529E2,2.650952935E-1,1.751996875E-1,9.219446182E-1
1.112885532E2,-6.532108784E-1,-3.051340282E-1,3.212455750E0
1.113885532E2,-1.660845876E0,-2.259307623E0,3.652603149E0
1.114885540E2,3.376265168E-1,-5.292266607E-1,-2.346609116E0
1.115885543E2,-5.866131783E-1,-1.346465349E-1,-4.270144939E0
1.116885543E2,2.972219288E-1,-1.090846539E0,8.026866913E-1
1.117885543E2,-3.775661886E-1,-8.682792187E-1,2.812125206E0
1.118885542E2,-3.790551424E-2,-2.500379086E0,2.844418526E0
1.119885542E2,-9.203642607E-2,-3.242051005E-1,-1.064187050E0
1.120885542E2,8.243423700E-1,1.198903680E0,-3.536579609E0
1.121885542E2,1.465254426E-1,-3.074030578E-1,1.471719742E-1
1.122885542E2,-5.904911757E-1,-4.354558289E-1,3.298088074E0
1.123885542E2,-9.427996874E-1,-1.645985007E0,1.839839935E0
1.124885542E2,6.298467517E-1,-8.075753450E-1,-1.997850895E0
1.125885542E2,-6.469153166E-1,3.685596585E-2,-1.923884392E0
1.126885542E2,-1.514155269E-1,-7.601733208E-1,8.191728592E-1
1.127885542E2,-3.587261438E-1,-1.019876719E0,3.839878082E0
1.128885542E2,-2.265602946E-1,-1.940138578E0,2.158656120E0
1.129885542E2,-5.781180859E-1,-1.061011314E0,-4.180259705E-1
1.130885542E2,1.024973989E-1,4.772322774E-1,-2.635289669E0
1.131885542E2,-2.086179852E-1,-2.521449327E-1,-3.383817673E-1
1.132885541E2,-2.544651628E-1,-9.843703508E-1,3.728145599E0
1.133885541E2,-6.271920204E-1,-1.354848146E0,2.757160187E0
1.134885541E2,7.027670145E-1,-9.292049408E-1,2.838697433E-1
1.135885541E2,-1.653388143E-1,5.230278373E-1,-2.920036316E0
1.136885542E2,-3.027298450E-1,-4.933524132E-1,-4.486112595E-1
1.137885542E2,-3.794124126E-1,-1.224689960E0,3.246852875E0
1.138885542E2,7.774181962E-1,-1.983835936E0,1.815207481E0
1.139885542E2,9.930117130E-1,-9.194918871E-1,-5.119123459E-1
1.140885534E2,5.199825764E-2,9.525989890E-1,-2.685459137E0
1.141886292E2,4.667249024E-1,4.243113697E-1,-1.125370026E0
1.142886289E2,2.193474770E-2,-4.085637927E-1,2.478584290E0
1.143886289E2,8.217678666E-1,-4.991313219E-1,3.053885460E0
1.144886281E2,8.042788506E-2,-1.055989742E0,-9.774599075E-1
1.145886281E2,-7.945532799E-1,-3.085931540E-1,-2.637158871E0
1.146886281E2,3.958924711E-1,2.927779853E-1,-1.380575180E0
1.147886281E2,1.824417412E-1,-1.288621306E0,2.271442413E0
1.148886284E2,1.377088785E0,-1.405047655E0,2.415922165E0
1.149886283E2,1.349706650E0,-1.527101874E0,4.187479019E-1
1.150886283E2,7.194602489E-1,8.367216587E-2,-3.802745342E0
1.151886283E2,1.169028878E0,8.520469069E-1,-2.410410881E0
1.152886283E2,-4.416048527E-2,1.507967710E-2,2.134463310E0
1.153886283E2,9.940708876E-1,-9.032796025E-1,4.228869438E0
1.154886283E2,1.104427218E0,-1.408908367E0,2.874345779E-1
1.155886283E2,1.771073341E-1,1.889791936E-1,-3.348108292E0
1.156886284E2,-6.199526787E-2,6.823641062E-1,-2.713353157E0
1.157886284E2,-1.756230593E-1,-5.520841479E-1,1.948336601E0
1.158886284E2,8.592574596E-1,-8.798832893E-1,8.103485107E-1
1.159886284E2,1.535837889E0,-2.040863514E0,1.009548187E0
1.160886284E2,1.239516735E-1,5.202672482E-1,-3.467016220E0
1.161886284E2,8.304389715E-1,5.950502753E-1,-1.822406769E0
1.162886284E2,1.541021466E-1,6.817340851E-3,1.918733597E0
1.163886284E2,4.953714609E-1,3.064900637E-1,2.336681366E0
1.164886284E2,-4.477175474E-1,-2.013314009E0,5.731744766E-1
1.165886284E2,-2.219982743E-1,-3.860644102E-1,-2.425678253E0
1.166886284E2,-1.161997914E-1,3.457055688E-1,-2.935612679E0
1.167886284E2,-4.925018549E-2,-8.203392029E-1,5.633754730E-1
1.168886284E2,-3.057733774E-1,8.972769976E-2,1.829697609E0
1.169886284E2,7.288013697E-1,-2.347171307E0,1.947687149E0
1.170886283E2,-2.404816151E-1,-1.323747188E-1,-2.259202957E0
1.171886283E2,4.874537289E-1,7.458065748E-1,-2.327126980E0
1.172886283E2,1.667012572E-1,-7.368934155E-2,7.400255203E-1
1.173886283E2,-4.845501781E-1,-3.882405758E-1,2.806640625E0
1.174886282E2,-9.106544256E-1,-1.723752975E0,1.031497002E0
1.175886282E2,4.120026827E-1,-8.570361137E-1,-2.275798321E0
1.176886282E2,7.654917240E-2,-6.563770771E-2,-3.329343796E0
1.177886282E2,1.507623494E-1,-4.254898429E-1,1.006899834E0
1.178886280E2,-5.288828015E-1,3.092051744E-1,3.397542000E0
1.179886280E2,-5.112809539E-1,-2.133428097E0,2.902347565E0
1.180886280E2,-3.693070412E-1,-8.854312897E-1,-1.193893433E0
1.181886280E2,7.059535384E-1,7.776298523E-1,-3.119473934E0
1.182886280E2,-2.425867319E-2,-1.083066463E-1,-1.626424789E-1
1.183886280E2,3.989173770E-1,-8.816076517E-1,2.882729530E0
1.184886280E2,-5.088622570E-1,-1.576784134E0,3.135920525E0
1.185886280E2,7.753491402E-2,-1.404372692E0,-6.704149246E-1
1.186886280E2,-1.151441336E-1,2.588803172E-1,-3.002680779E0
1.187886280E2,-1.995998025E-1,-2.515184283E-1,2.167930603E-1
1.188886280E2,6.457680464E-2,-1.558164358E-1,2.662741661E0
1.189886271E2,7.931123376E-1,-1.438154459E0,3.601737976E0
1.190886271E2,6.784940362E-1,-1.356479406E0,3.382682800E-3
1.191886271E2,2.870727181E-1,1.427010894E-1,-3.367025375E0
1.192886271E2,8.266153336E-1,4.348148108E-1,-1.682521820E0
1.193886271E2,6.620812416E-1,-1.651895642E-1,2.431175232E0
1.194886271E2,3.995109797E-1,-1.148028135E0,3.029562950E0
1.195886269E2,8.214443922E-1,-1.424151421E0,-5.500755310E-1
1.196886269E2,-3.224771023E-1,-3.763348758E-1,-2.527925491E0
1.197886269E2,2.651903629E-1,4.174398184E-1,-1.907257080E0
1.198886269E2,-4.886391163E-1,-1.339109540E0,2.354601860E0
1.199886269E2,9.862362146E-1,-1.945641518E0,3.387637138E0
1.200886269E2,9.780565500E-1,-9.350141287E-1,2.724809647E-1
1.201886269E2,-2.770719528E-1,1.873504817E-1,-2.580803871E0
1.202885936E2,1.434368849E0,9.156167507E-1,-3.143097401E0
1.203885602E2,8.452835083E-1,-2.011280954E-1,2.063157082E0
1.204885269E2,-4.359036684E-2,-6.085928082E-1,3.915365219E0
1.205884935E2,3.386102319E-1,-1.584187031E0,5.094470978E-1
1.206884602E2,-6.209486723E-2,-3.858303726E-1,-4.416940689E0
1.207884269E2,1.314864635E0,7.813731432E-1,-3.728083134E0
1.208883935E2,5.622143745E-1,-5.351895690E-1,2.254592896E0
1.209883602E2,4.691269398E-1,-4.189975560E-1,2.649686813E0
1.210883269E2,6.700890064E-1,-2.576941490E0,5.934181213E-1
1.211874988E2,1.929105520E-1,2.318310142E-1,-2.574748516E0
1.212874654E2,1.339189529E0,1.169967413E0,-2.696831703E0
1.213874321E2,3.086181283E-1,-5.244354606E-1,1.647999763E0
1.214873987E2,1.072657108E-1,3.714370728E-2,2.173734665E0
1.215873654E2,-3.016624451E-1,-1.484873056E0,5.862503052E-1
1.216873320E2,9.642368555E-2,-3.849541545E-1,-3.692809582E0
1.217872987E2,-1.712655425E-1,3.229033947E-2,-2.412316799E0
1.218872657E2,2.203164697E-1,-1.270035505E-1,3.665018082E-1
1.219872333E2,1.414912343E-1,5.089224577E-1,2.834203720E0
1.220872000E2,4.321458042E-1,-2.825205803E0,1.629756927E0
1.221871667E2,1.684813499E-1,-8.196049929E-2,-3.355211258E0
1.222871333E2,5.866707563E-1,5.500687361E-1,-2.793131828E0
1.223871000E2,5.876722932E-1,9.069651365E-2,4.635581970E-1
1.224870667E2,-7.198367119E-1,-3.553497195E-1,4.046635628E0
1.225870333E2,-7.159557343E-1,-2.333867550E0,1.829537392E0
1.226870000E2,4.569399357E-2,-1.159682631E0,-2.006136894E0
1.227869666E2,-4.095103741E-1,-9.409064054E-2,-2.167696953E0
1.228869333E2,3.209753633E-1,-3.901046515E-1,7.828369141E-1
1.229869000E2,-5.321949720E-1,5.518151522E-1,3.606828690E0
1.230868666E2,-1.681256294E-1,-2.623861313E0,1.742060661E0
1.231868333E2,-1.728321314E-1,-1.075483203E0,-1.108610153E0
1.232868333E2,3.165510893E-1,6.478406787E-1,-3.429540634E0
1.233868333E2,-4.105591774E-2,1.340138912E-2,7.639942169E-1
1.234868333E2,-6.523524523E-1,-1.224622250E0,4.096387863E0
1.235868339E2,-3.041049242E-1,-1.611220121E0,2.735358238E0
1.236868339E2,3.654255271E-1,-1.496510506E0,8.110809326E-2
1.237868339E2,5.316698551E-1,1.436035633E-1,-3.930715561E0
1.238868339E2,1.187929392E0,-2.098141313E-1,-3.755378723E-2
1.239868339E2,-7.751889229E-1,-1.141342521E-1,3.482170105E0
1.240868339E2,8.154046535E-1,-1.430653453E0,1.490140915E0
1.241875087E2,3.946858048E-1,-2.023047924E0,5.974302292E-1
1.242875088E2,-2.597377300E-1,1.836019754E-1,-2.549623966E0
1.243875088E2,3.910195827E-1,1.758110523E-2,-1.071604729E0
1.244875089E2,1.877137423E-1,-7.958758473E-1,3.049516678E0
1.245875095E2,2.379572392E-2,-1.817535520E0,4.172291756E0
1.246875095E2,4.188553095E-1,-1.039007902E0,6.957054138E-2
1.247875095E2,-6.712281704E-2,1.061013639E-1,-3.458391666E0
1.248875092E2,1.471902728E-1,-2.612130642E-1,-1.493612289E0
1.249875092E2,5.260235071E-2,-1.439541101E0,1.582955360E0
1.250875091E2,7.899384499E-1,-7.924842834E-1,2.894332886E0
1.251875091E2,7.848861814E-1,-1.560911894E0,2.571706772E-1
1.252875093E2,6.865907311E-1,4.430496097E-1,-3.741082191E0
1.253875093E2,1.085301280E0,4.112367630E-1,-1.630892754E0
1.254875093E2,1.345725060E-1,-3.337827921E-1,2.106966972E0
1.255875095E2,4.650418162E-1,1.066550016E-1,1.719728470E0
1.256875095E2,-2.913861275E-1,-1.921500921E0,2.927675247E-1
1.257875095E2,3.132611513E-1,-4.299871027E-1,-3.300993443E0
1.258875095E2,-9.324914217E-2,4.568815231E-2,-1.545141220E0
1.259875095E2,1.318282485E-1,-1.621143222E-1,3.469839096E-1
1.260875095E2,2.679646015E-2,-5.674839020E-3,3.090535164E0
1.261875095E2,9.013746977E-1,-2.362864971E0,2.361016273E0
1.262875095E2,-2.727707624E-1,-8.546822071E-1,-2.850613594E0
1.263875095E2,7.944418192E-1,3.672155738E-1,-4.140861034E0
1.264875095E2,-8.229994774E-2,-1.183637977E-1,1.395336151E0
1.265875088E2,-8.289968967E-2,-3.838793635E-1,3.058653831E0
1.266875089E2,-1.508002162E0,-2.811990499E0,4.015742302E0
1.267875089E2,9.312508106E-1,-1.052173972E0,-1.462265968E0
1.268875089E2,4.587412477E-1,-4.468086660E-1,-2.852707863E0
1.269875089E2,1.530950069E0,5.646494627E-1,-2.474748611E0
1.270875089E2,-1.474564075E0,-1.036304832E0,2.802646637E0
1.271875089E2,-5.719102621E-1,-8.967022896E-1,3.701727867E0
1.272875088E2,8.603157997E-1,-2.563019037E0,1.341754913E0
1.273875088E2,6.979992390E-1,-2.662477195E-1,-3.446444035E0
1.274875090E2,1.115512371E0,1.923860312E-1,-2.953032970E0
1.275875084E2,4.932678342E-1,6.230503917E-1,3.565473557E-1
1.276875084E2,-7.352852821E-2,-4.835412204E-1,4.391509056E0
1.277875084E2,-2.320569754E-1,-2.066144466E0,1.211081505E0
1.278875084E2,1.744123101E-1,-2.256285429E0,7.086973190E-1
1.279875084E2,1.017667055E-1,1.337046027E-1,-3.222944736E0
1.280875084E2,-3.898101449E-1,-4.286119044E-1,-6.766757965E-1
1.281875084E2,7.648904324E-1,-8.448374271E-1,1.736587524E0
1.282875083E2,1.991987228E-1,-2.045522213E0,3.229511261E0
1.283875083E2,5.646628141E-2,-1.905318618E0,4.242429733E-1
1.284875083E2,9.795075655E-2,-1.343714952E0,-1.857144356E0
1.285875080E2,5.284948349E-1,-8.542752862E-1,-2.555559158E0
1.286875080E2,2.311737537E-1,-3.900594711E-1,-1.030759811E-1
1.287875080E2,1.940258741E-1,-7.037843466E-1,2.131545067E0
1.288875081E2,1.671125889E-1,-1.549765706E0,3.038922310E0
1.289875081E2,-2.977219820E-1,-2.150034428E0,-2.034826279E-1
1.290875081E2,-6.804106236E-1,-1.490255833E0,-3.922119141E-1
1.291875081E2,7.241684198E-2,-9.671366811E-1,-9.831466675E-1
1.292875081E2,-7.276833057E-3,-1.179517031E0,1.322908401E-1
1.293875081E2,1.294689775E-1,-1.457392931E0,7.832250595E-1
1.294875081E2,5.927459598E-1,-1.995065212E-1,-3.591232300E-1
1.295875079E2,-8.708596826E-1,-1.859637022E0,1.519123077E0
1.296875079E2,8.683687449E-2,-9.698075652E-1,-3.828964233E-1
1.297875079E2,4.438476861E-1,-1.028345823E0,-2.257900238E-1
1.298875079E2,2.625427842E-1,-6.723238230E-1,1.237449646E-1
1.299875079E2,6.840008497E-2,-9.056537151E-1,1.831312180E-1
1.300875079E2,-1.033872366E-2,-1.312247813E-1,-1.308031082E-1
1.301875079E2,-9.913623333E-3,-3.329403698E-2,-3.196907043E-2
1.302875081E2,-7.606646419E-2,3.910360336E-1,-1.807451248E-1
1.303875081E2,1.374387294E-1,-2.921801805E-1,2.968788147E-1
1.304875078E2,4.302529991E-2,3.001762927E-1,-2.153301239E-2
1.305875078E2,1.704850942E-1,2.889914811E-1,8.017349243E-2
1.306875078E2,-7.474758029E-1,-2.451706529E-1,-1.574192047E-1
1.307875078E2,7.410037518E-2,1.521349400E-1,1.526117325E-1
1.308874745E2,-2.763524652E-2,5.508267879E-2,-2.675743103E-1
1.309874411E2,1.027627885E-1,5.751404166E-2,-1.195716858E-2
1.310874078E2,6.121864915E-2,1.972794533E-1,2.849483490E-2
1.311873745E2,4.530590773E-2,-9.678393602E-3,1.018810272E-2
1.312873412E2,1.798809916E-1,5.111518502E-2,3.726482391E-2
1.313873078E2,-2.724066377E-2,-1.223224401E-2,-1.456165314E-2
1.314872745E2,7.907837629E-2,-5.903890729E-2,-8.688926697E-3
1.315872412E2,5.744260550E-2,-1.915740967E-2,1.185436249E-1
1.316872078E2,-2.061861753E-2,-4.076758027E-2,7.053279877E-2
1.317871745E2,-4.935759306E-2,-2.850478888E-2,-5.041503906E-2
1.318871412E2,-8.144199848E-3,4.604578018E-3,1.386032104E-1
1.319871078E2,3.979384899E-3,2.590647340E-2,1.724739075E-1
1.320870744E2,-5.805489421E-2,-1.149490476E-2,7.503795624E-2
1.321870411E2,1.217033267E-1,-8.195012808E-3,7.440376282E-2
1.322870077E2,2.632287145E-2,-3.816461563E-2,-7.605743408E-2
1.323869744E2,1.071691811E-1,-7.870694995E-2,1.071853638E-1
1.324869411E2,3.924369812E-4,-5.040764809E-3,6.407165527E-2
1.325869087E2,-3.881141543E-2,-9.932655096E-2,3.444480896E-2
1.326868753E2,1.978403330E-2,-1.362782717E-2,3.969669342E-2
1.327868420E2,-4.940840602E-2,-1.037681997E-1,2.122488022E-1
1.328868087E2,-9.224116802E-3,-5.235847831E-2,7.882118225E-2
1.329867754E2,5.965888500E-3,-6.294387579E-2,5.765533447E-2
1.330867420E2,1.938951015E-2,-7.078215480E-2,2.345991135E-1
1.331867087E2,-3.255417943E-2,-1.195580363E-1,4.131984711E-2
1.332866751E2,1.743095517E-1,5.605220795E-4,4.797649384E-2
1.333866418E2,2.332052588E-2,-5.115300417E-2,-9.770011902E-2
1.334866085E2,8.665937185E-2,2.526178956E-2,1.076869965E-1
1.335865752E2,-4.453057051E-2,-6.358093023E-2,1.217632294E-1
1.336865418E2,4.734042287E-2,-1.479902864E-2,-1.264820099E-1
1.337865085E2,1.093983650E-3,-5.588689446E-2,-5.751228333E-2
1.338865085E2,-1.726779342E-2,-1.058864295E-1,1.266269684E-1
1.339865085E2,6.472930312E-2,-3.206926584E-2,1.680030823E-1
1.340865085E2,3.567734361E-2,-6.200608611E-2,2.011833191E-1
1.341860989E2,4.033008218E-2,-9.667927027E-2,-1.157283783E-2
1.342860989E2,-2.015308142E-1,-1.024311185E-1,-3.674983978E-2
1.343860989E2,4.353150725E-2,7.717686892E-2,3.663063049E-3
1.344860989E2,3.127062917E-1,-1.758970320E-1,2.635955811E-3
1.345860989E2,-8.318471909E-2,-3.211206198E-2,-1.836118698E-1
1.346860989E2,-5.056303740E-2,-3.257283568E-2,4.569559097E-1
1.347860989E2,-3.574997187E-3,3.171813488E-2,-5.637645721E-2
1.348860989E2,8.859503269E-2,-8.095246553E-2,8.907890320E-2
1.349860989E2,-7.786110044E-2,-2.101492882E-1,3.222942352E-2
1.350860991E2,-1.067451239E-1,8.372598886E-2,-9.350490570E-2
1.351860991E2,3.140559793E-2,2.454665303E-2,-3.001832962E-1
1.352860991E2,3.636103868E-2,1.117796600E-1,6.959533691E-2
1.353860990E2,-2.774602175E-1,8.794888854E-2,-1.502933502E-1
1.354860990E2,-5.392811894E-1,6.371775270E-2,-4.070215225E-1
1.355860984E2,-1.143576860E0,3.067883849E-2,-1.533823013E-1
1.356860984E2,-1.589553356E0,-2.746946216E-1,-7.663574219E-1
1.357860984E2,-1.951584339E0,-6.680122614E-1,1.611185074E-1
1.358860984E2,-1.577342987E0,-9.946230054E-1,1.041164398E0
1.359860984E2,-1.548243761E0,-1.495387197E0,9.455680847E-3
1.360860984E2,-8.665442467E-3,-1.779146433E0,1.010551453E-1
1.361860984E2,1.338633776E0,-9.632709026E-1,-4.241495132E-1
1.362860984E2,1.749833822E0,-1.340399504E0,-5.868253708E-1
1.363860984E2,1.110496044E0,-1.085365653E0,1.070599556E0
1.364860984E2,1.253631353E0,-2.203281522E-1,6.341419220E-1
1.365860985E2,5.790975690E-1,-2.084469199E-1,-3.291883469E-1
1.366860985E2,-2.288271487E-1,3.213936687E-1,-5.365829468E-1
1.367860985E2,2.146819234E-1,1.097815275E0,1.762008667E-2
1.368860985E2,3.600363433E-2,1.506710052E0,-3.603363037E-1
1.369860985E2,3.378116190E-1,1.361577392E0,-1.170495987E0
1.370860985E2,-3.330796063E-1,9.280013442E-1,2.496204376E-1
1.371860985E2,-9.692885727E-2,3.220337629E-2,1.966887474E0
1.372860985E2,-3.052605689E-1,-1.421942115E0,4.155269623E0
1.373860986E2,-9.761494994E-1,-6.377441883E-1,-9.908494949E-1
1.374860986E2,-9.314058423E-1,-3.493395150E-1,-2.127197266E0
1.375860988E2,1.150067687E0,-5.570620298E-2,-1.729272842E0
1.376860988E2,-2.510645986E-2,9.114742279E-4,1.068420410E0
1.377860988E2,-5.272871256E-2,-1.670901775E0,2.830092430E0
1.378860988E2,7.037303448E-1,-2.298419237E0,5.171966553E-1
1.379860988E2,-2.830265164E-1,-7.916203737E-1,-2.612016678E0
1.380860987E2,-2.148474753E-1,3.014148474E-1,-3.570414066E0
1.381860987E2,9.175862074E-1,3.764674664E-1,1.858391762E0
1.382860987E2,2.752090245E-2,-1.083933711E0,3.540513039E0
1.383860987E2,-1.564389944E0,-2.373361588E0,2.613469124E0
1.384860987E2,-9.990834594E-1,-1.199572802E0,-1.422550201E0
1.385860987E2,-3.474131525E-1,5.180643201E-1,-2.845124722E0
1.386860987E2,-2.930847555E-2,2.750626802E-1,5.202865601E-2
1.387860987E2,5.488780886E-2,-1.181900978E0,3.479156494E0
1.388860987E2,-2.821095884E-1,-2.894799709E0,4.121376038E0
1.389860987E2,-7.446360588E-2,-1.658788681E0,-3.606185913E-1
1.390860987E2,2.223861031E-2,-5.056964755E-1,-3.389728546E0
1.391860987E2,2.186118066E-1,-1.549328566E-1,-1.364385605E0
1.392860987E2,3.658103347E-1,-1.617631674E0,3.030303001E0
1.393860987E2,-5.386026204E-2,-8.956556320E-1,1.020973206E0
1.394860987E2,-2.992780507E-1,-1.557186484E0,7.488622665E-1
1.395860985E2,-5.661780834E-1,-4.595922828E-1,-1.365499496E0
1.396860985E2,2.232007086E-1,2.586579323E-2,-9.939794540E-1
1.397860985E2,1.500181556E-1,-1.111526251E0,1.136316299E0
1.398860985E2,1.457966089E0,-1.496803045E0,2.663576126E0
1.399860985E2,1.794784367E-1,-2.213427067E0,1.366741180E0
1.400860988E2,-4.107668102E-1,-3.784809709E-1,-2.609237194E0
1.401860988E2,5.050652623E-1,1.651053429E-1,-1.772231102E0
1.402860988E2,3.578908443E-1,-8.298149109E-1,1.739489555E0
1.403860988E2,-1.853376776E-1,-4.246060848E-1,1.505765915E0
1.404860988E2,-5.409191251E-1,-1.535222292E0,5.113763809E-1
1.405860988E2,-6.098344922E-1,-1.807841063E-1,-2.940543175E0
1.406860987E2,-2.422942221E-2,7.366347313E-2,-2.139581203E0
1.407860987E2,3.438825011E-1,-9.762555361E-1,1.558029175E0
1.408860987E2,-2.426161915E-1,-4.959554672E-1,1.490485191E0
1.409860987E2,1.091012239E0,-1.953228831E0,1.295701981E0
1.410858624E2,-2.662237585E-1,-5.487233400E-1,-3.168396473E0
1.411858624E2,3.134170175E-1,4.922651052E-1,-3.036674023E0
1.412858624E2,-5.287557840E-1,-5.419082642E-1,1.380013466E0
1.413858625E2,4.566996098E-1,-5.672949553E-1,1.849793434E0
1.414858625E2,-1.216543794E0,-1.053190947E0,-5.965051651E-1
1.415858631E2,-1.363716960E0,-7.207487822E-1,-2.207455635E0
1.416858631E2,-1.279910356E-1,1.142832041E-1,-2.060308456E0
1.417858631E2,2.707816958E-1,-1.207883835E0,1.201522827E0
1.418858631E2,-3.907848597E-1,-3.509674072E-1,3.659873009E0
1.419858631E2,-3.154031932E-1,-2.407087326E0,-7.614803314E-2
1.420858631E2,-5.806490779E-1,-1.048793554E0,-6.225481033E-1
1.421858631E2,3.213599324E-1,4.674273729E-1,-2.458105087E0
1.422858632E2,5.054966211E-1,3.596485853E-1,1.020231247E-1
1.423858632E2,1.154642105E-1,-7.262405753E-1,3.259444237E0
1.424858632E2,-1.050045967E0,-2.140147924E0,1.390369415E0
1.425858629E2,-1.514790952E-2,-1.172913551E0,-8.563299179E-1
1.426858629E2,-2.845134139E-1,-2.318239212E-2,-2.602775574E0
1.427858629E2,2.426883578E-2,-1.424113274E0,1.668476105E0
1.428858630E2,-4.692582190E-1,-6.567013264E-2,2.440314293E0
1.429858630E2,8.181285858E-2,-2.070058346E0,2.705804825E0
1.430858627E2,3.705797791E-1,-8.231703639E-1,-6.398506165E-1
1.431858627E2,6.735113263E-2,5.473790765E-1,-1.939944744E0
1.432858627E2,-3.159195185E-2,4.701268673E-2,2.622623444E-1
1.433858626E2,-1.061509550E-1,-5.705595613E-1,2.757342339E0
1.434858627E2,-1.369026303E-2,-1.120752573E0,2.311002731E0
1.435858627E2,4.423350096E-2,-1.539083123E0,-5.737905502E-1
1.436858628E2,-3.402340412E-2,-2.506407499E-1,-4.169154167E0
1.437858628E2,1.701232046E-1,-1.484794617E-1,-1.281017303E0
1.438858628E2,1.841410995E-2,-3.707863688E-1,1.635678291E0
1.439858628E2,-8.632932603E-2,-2.047119141E0,3.321340561E0
1.440858628E2,1.306963444E0,-9.981801510E-1,-3.821535110E-1
1.441858628E2,3.681550026E-1,-1.774615049E-2,-2.546475887E0
1.442858628E2,5.919882655E-1,5.566369295E-1,-1.189646721E0
1.443857231E2,5.923668146E-1,-4.363233447E-1,9.708642960E-1
1.444857232E2,6.363129616E-1,-1.121088028E0,2.738526344E0
1.445857230E2,9.117382765E-2,-1.551649809E0,-3.595237732E-1
1.446857230E2,-7.371947765E-1,-3.086128235E-1,-3.376678467E0
1.447857230E2,2.884945273E-2,1.298986673E-1,-1.648245811E0
1.448857230E2,3.252760768E-1,-4.131231308E-1,8.688287735E-1
1.449857230E2,3.856891990E-1,-4.743229151E-1,1.405126572E0
1.450857230E2,6.328999400E-1,-1.910841465E0,3.741264343E-1
1.451857230E2,-3.390374780E-2,-4.441592693E-1,-1.366597176E0
1.452857229E2,4.337821603E-1,1.068032742E0,-2.503745079E0
1.453857230E2,3.773428798E-1,-7.640298009E-1,3.794565201E-1
1.454857230E2,1.882934570E-2,2.890723944E-1,1.837659836E0
1.455857229E2,-1.112725496E0,-1.459300518E0,4.067707062E-1
1.456857229E2,-5.129860640E-1,-5.115174651E-1,-9.964475632E-1
1.457857229E2,-2.973617315E-1,3.802416325E-1,-2.149438858E0
1.458857229E2,-1.418730319E-1,-1.159908533E0,7.327289581E-1
1.459857229E2,-4.984883964E-1,-5.523979664E-2,1.824003220E0
1.460857229E2,5.078479648E-2,-1.940047264E0,6.260261536E-1
1.461857229E2,1.741702557E-1,-5.947767496E-1,-1.256143570E0
1.462857229E2,3.264768124E-1,7.176586986E-1,-3.357806206E0
1.463857229E2,-6.414975226E-2,-2.502347827E-1,1.233548164E0
1.464857229E2,-4.335929751E-1,-4.270351529E-1,3.552927017E0
1.465857236E2,-1.153162718E0,-1.341054201E0,4.978361130E-1
1.466857234E2,2.733449340E-1,-9.068586230E-1,-1.673723221E0
1.467857234E2,-4.977728128E-1,-1.432823539E-1,-2.846183300E0
1.468857234E2,5.506256223E-2,-5.428674817E-1,4.977102280E-1
1.469857234E2,-7.269735336E-1,-1.935994625E-2,4.751105309E0
1.470857234E2,-6.496524811E-1,-1.597473025E0,2.073373795E0
1.471857234E2,-2.608282268E-1,-8.581709266E-1,-1.503999710E0
1.472857235E2,4.475890696E-1,1.109875083E0,-2.745543003E0
1.473857235E2,1.880947649E-1,3.976570368E-1,2.152662277E-1
1.474857234E2,-3.134348392E-1,-7.244098783E-1,2.715154648E0
1.475857236E2,-1.336174607E0,-1.886210203E0,2.359268188E0
1.476857236E2,2.860664427E-1,-8.271900415E-1,-2.365400314E0
1.477857236E2,-6.004869938E-1,-4.958713055E-2,-2.690704823E0
1.478857236E2,-6.589344144E-2,-4.933367968E-1,7.420215607E-1
1.479857236E2,-2.098262608E-1,-4.875414670E-1,3.773917198E0
1.480857236E2,1.162272990E-1,-1.840278268E0,2.433831215E0
1.481857236E2,-7.445506752E-2,-1.219371557E0,-9.260206223E-1
1.482857236E2,3.725286126E-1,7.477398515E-1,-3.159999371E0
1.483857236E2,-1.178364828E-1,2.756550908E-1,8.366870880E-2
1.484857236E2,1.057726145E0,-9.413036108E-1,3.370800018E0
1.485857236E2,-2.981952131E-1,-1.130437016E0,2.230293274E0
1.486857236E2,4.310026169E-1,-1.360265017E0,-3.847990036E-1
1.487857236E2,-2.162180692E-1,2.988916039E-1,-2.484202385E0
1.488857236E2,5.754525661E-1,2.616173029E-2,7.377529144E-2
1.489857236E2,-3.878797591E-2,-8.328481913E-1,3.024858475E0
1.490857236E2,2.918125093E-1,-6.569675207E-1,2.156143188E0
1.491857236E2,6.376994252E-1,-1.516080022E0,-6.247482300E-1
1.492857236E2,4.048255980E-1,4.897925854E-1,-3.353097916E0
1.493857236E2,6.025410891E-1,3.408674002E-1,-3.072643280E-1
1.494857236E2,2.790652514E-1,-5.769665241E-1,3.262195587E0
1.495857227E2,2.518342733E-1,-3.273074031E-1,2.208835602E0
1.496857227E2,6.415110826E-2,-1.956197500E0,-2.788105011E-1
1.497857227E2,-7.230953574E-1,-1.958898604E-1,-2.007595062E0
1.498857227E2,-1.953572594E-2,2.583360672E-2,-7.912435532E-1
1.499857227E2,1.517657042E-1,-9.437738657E-1,2.085545540E0
1.500857227E2,-3.990851045E-1,-1.358654499E0,3.003866196E0
1.501857227E2,1.139372826E0,-1.024738669E0,-3.414554596E-1
1.502857227E2,3.462477326E-1,5.171217322E-1,-3.158177376E0
1.503857227E2,5.077361465E-1,4.897261858E-1,-1.661288261E0
1.504857227E2,7.577515841E-1,-7.313469052E-1,2.109555244E0
1.505857218E2,8.901395202E-1,-1.123101473E0,3.972915649E0
1.506857218E2,2.495207191E-1,-1.320292473E0,-1.043161392E0
1.507857218E2,-6.182036400E-1,2.709126472E-2,-3.208611965E0
1.508857218E2,-2.931028605E-1,-6.141984463E-2,-7.217807770E-1
1.509857218E2,6.906554699E-1,-7.297297120E-1,1.516269684E0
1.510857218E2,2.827403545E-1,-8.174734116E-1,9.309835434E-1
1.511857218E2,1.649513841E0,-1.534338951E0,-1.560747147E0
1.512856885E2,-2.648149729E-1,5.696967840E-1,-3.017250061E0
1.513856551E2,1.866032779E-1,2.225251198E-1,-1.256634712E0
1.514856218E2,3.790676594E-1,-3.648171425E-1,1.399793625E-1
1.515855885E2,9.587270021E-1,-3.477112353E-1,1.969486237E0
1.516855552E2,1.954988986E-1,-1.240914464E0,3.195056915E-1
1.517855218E2,-2.734268606E-1,-3.610078692E-1,-2.425736904E0
1.518854885E2,-1.376859546E-1,-2.971640825E-1,-2.509348869E0
1.519854552E2,1.365477443E-1,-5.216208696E-1,2.233559608E0
1.520854218E2,-5.614156723E-1,9.861319512E-2,3.772986412E0
1.521853885E2,5.594222546E-1,-1.681833863E0,-2.798547745E-1
1.522853551E2,-6.314411759E-1,-2.309782356E-1,-2.477117538E0
1.523853218E2,2.553568482E-1,1.193542600E0,-2.505452156E0
1.524852893E2,-3.489177525E-1,-3.663867712E-2,1.493893623E0
1.525852560E2,-4.363588095E-1,-3.459802270E-1,2.087846756E0
1.526852227E2,-8.312650323E-1,-1.533104897E0,4.125061035E-1
1.527851893E2,1.342222095E-2,-3.724826872E-1,-2.012856007E0
1.528851560E2,-4.732931554E-1,1.100387812E0,-2.249697208E0
1.529851227E2,-6.122087836E-1,-5.106808543E-1,1.327250481E0
1.530850894E2,-6.616695523E-1,-4.091861844E-2,3.204172134E0
1.531850560E2,1.896061599E-1,-2.213613510E0,1.237200737E0
1.532850227E2,-1.868932508E-2,-5.205442309E-1,-1.625082016E0
1.533849894E2,7.177683711E-1,1.025825620E0,-3.047106743E0
1.534849560E2,-6.030978560E-1,6.500102878E-1,7.963352203E-1
1.535849227E2,-3.451295793E-1,-1.331597567E-2,3.232493401E0
1.536848894E2,-7.495000362E-1,-2.004056215E0,3.133264542E0
1.537848560E2,3.351966143E-1,-1.376674652E0,-2.449933529E0
1.538848227E2,-6.250990629E-1,-3.737229854E-2,-3.412500858E0
1.539847894E2,9.231841564E-2,-2.525397241E-1,7.655181885E-1
1.540847560E2,-3.637061715E-1,-1.114098728E-1,3.005103111E0
1.541846894E2,-3.039023280E-1,-1.643864989E0,3.288142204E0
1.542846560E2,-5.063754916E-1,1.375836432E-1,-1.157889366E0
1.543835164E2,-3.828693628E-1,1.172617674E0,-3.338379860E0
1.544834830E2,2.146600187E-1,3.211545646E-1,-5.235929489E-1
1.545834497E2,-4.655790627E-1,-1.830251217E0,4.214533806E0
1.546834165E2,-1.440489411E0,-2.427686691E0,3.382133484E0
1.547833831E2,5.746803284E-1,-1.971128464E0,-9.707355499E-1
1.548833497E2,2.328485250E-3,4.813428521E-1,-2.879687309E0
1.549833164E2,5.212954283E-1,-2.321109921E-2,-1.328213692E0
1.550832830E2,-7.664729357E-1,-3.384075761E-1,2.553472519E0
1.551832164E2,5.955376625E-1,-2.092797995E0,1.832048416E0
1.552831497E2,-4.670935869E-1,-1.254898310E-1,-4.244127274E-1
1.553830830E2,-1.903644055E-1,1.273437262E0,-2.559921741E0
1.554830155E2,1.238118112E-1,4.570946693E-1,-4.806976318E-1
1.555829488E2,-3.826360404E-1,-7.706602812E-1,2.418625832E0
1.556828821E2,-7.315271497E-1,-2.706200361E0,2.720295906E0
1.557828155E2,5.635971427E-1,-8.959278464E-1,-1.279652596E0
1.558827488E2,-5.849197507E-2,2.217860222E-1,-3.056156635E0
1.559826821E2,9.801064134E-1,3.063400686E-1,-1.391515732E0
1.560826156E2,-2.210903168E-1,-5.917612314E-1,2.430006027E0
1.561825489E2,-8.981902003E-1,-2.111908674E0,4.383213997E0
1.562824822E2,9.006578326E-1,-1.282892823E0,1.050243378E-1
1.563824155E2,2.395579219E-1,1.010978460E0,-2.395611763E0
1.564823489E2,4.253189564E-1,9.748737812E-1,-1.359241486E0
1.565822825E2,3.120715022E-1,-1.017423987E0,1.826757431E0
1.566822158E2,3.651958406E-1,-1.307720661E0,1.818308830E0
1.567821491E2,7.683308125E-1,-8.166779876E-1,-5.772027969E-1
1.568820825E2,-1.644057035E-1,-6.382282078E-2,-2.425777435E0
1.569820158E2,1.842569709E-1,5.723057389E-1,-1.764722824E0
1.570819492E2,2.200810015E-1,-8.350776434E-1,9.054422379E-1
1.571819158E2,5.499244928E-1,-4.692023396E-1,1.989282608E0
1.572818825E2,5.599117279E-1,-1.748653173E0,5.328655243E-1
1.573818491E2,5.633661151E-2,4.068903327E-1,-2.269306183E0
1.574818158E2,4.815646112E-1,5.527707934E-1,-2.302268028E0
1.575817825E2,1.959495395E-1,-2.368282229E-1,1.070583344E0
1.576817490E2,1.167556942E-1,-3.946023583E-1,1.042378426E0
1.577817157E2,-9.050198793E-1,-9.751660228E-1,1.240930557E-1
1.578816824E2,-5.930370092E-1,2.373829782E-1,-1.662863731E0
1.579816491E2,-8.297314644E-1,-1.348704100E-2,-1.097040176E0
1.580816157E2,3.013815880E-1,-8.370710611E-1,3.081760406E-1
1.581816157E2,-2.059847116E-1,-3.766493499E-1,1.567761421E0
1.582816157E2,5.585439801E-1,-1.499920487E0,-2.778892517E-1
1.583816157E2,-4.756285548E-1,-1.992118359E-1,-1.729030609E0
1.584816157E2,1.038051605E0,1.531267285E0,-2.497747421E0
1.585816160E2,1.365632713E-1,1.042052507E-1,1.549334526E0
1.586816160E2,4.545533061E-1,3.138817847E-1,2.627313614E0
1.587816160E2,-1.517759562E0,-1.620252371E0,-1.190862656E-1
1.588816160E2,-1.803774685E-1,-2.973988652E-1,-2.389272690E0
1.589816160E2,-6.027067304E-1,5.226091743E-1,-2.124920368E0
1.590816159E2,-3.697261214E-1,-5.355479121E-1,1.502909660E0
1.591816159E2,-7.806040049E-1,-1.241187453E-1,2.687858582E0
1.592816159E2,8.213108778E-1,-1.800534964E0,-4.055356979E-1
1.593816159E2,-3.749093711E-1,-4.526206255E-1,-9.082069397E-1
1.594816159E2,3.833108842E-1,1.339616179E0,-3.237382889E0
1.595816156E2,-1.330878735E-1,-4.130970836E-1,1.678043365E0
1.596816156E2,5.362108946E-1,-6.260936260E-1,2.253686905E0
1.597816156E2,-1.146505952E0,-1.317147732E0,-5.217952728E-1
1.598816156E2,-1.790485382E-1,-1.706265509E-1,-2.448082924E0
1.599816156E2,-3.761129975E-1,4.860067964E-1,-2.129740715E0
1.600816156E2,-1.466173828E-1,-5.333740711E-1,1.571653366E0
1.601816156E2,-3.470298946E-1,2.766317427E-1,1.852271080E0
1.602816157E2,3.098685741E-1,-1.921997786E0,1.876707077E0
1.603816157E2,-2.271227092E-1,-6.713851690E-1,-1.698893547E0
1.604816157E2,6.289757490E-1,1.158197641E0,-3.327097416E0
1.605816157E2,-2.822964191E-1,-2.692022920E-2,6.789894104E-1
1.606816157E2,-6.824890971E-1,-3.566808999E-1,3.402381897E0
1.607816157E2,-1.620528579E0,-2.302453041E0,2.497942924E0
1.608816157E2,1.399099827E-2,2.472281158E-1,-1.760700226E0
1.609816157E2,-1.097704411E0,7.181713581E-1,-2.613355160E0
1.610816157E2,-2.853093743E-1,-3.806999922E-1,-8.050441742E-2
1.611822984E2,-4.254553020E-1,-5.845855474E-1,2.899000168E0
1.612822985E2,-1.779547930E0,-3.055433989E0,5.274724007E0
1.613822985E2,-5.117808282E-2,2.947850227E-1,-2.800966740E0
1.614822984E2,8.275672793E-1,5.645120144E-2,-2.416029930E0
1.615822990E2,7.337596416E-1,5.667231083E-1,-5.017395020E-1
1.616822990E2,5.889475346E-3,-1.693983972E-1,3.633134842E0
1.617822990E2,-1.621946812E0,-2.051102161E0,2.250710487E0
1.618823005E2,6.850544363E-2,-7.471971512E-1,-1.359643936E0
1.619823005E2,-1.001207471E0,1.824371219E-1,-2.876112938E0
1.620823013E2,-2.597275376E-1,2.539026737E-2,-5.737495422E-2
1.621823013E2,-1.069491148E0,-5.480950475E-1,4.009846687E0
1.622823014E2,-1.331224442E0,-2.035812140E0,2.127202988E0
1.623823014E2,-1.442547292E-1,-5.805004835E-1,-1.599874496E0
1.624823014E2,8.868021965E-1,7.289127707E-1,-3.475656033E0
1.625823017E2,4.391331077E-1,9.578950405E-1,-1.704521179E-1
1.626823017E2,8.572605848E-1,-2.915543318E-1,2.322269440E0
1.627823017E2,-4.834139943E-1,-1.777829409E0,1.916651726E0
1.628823017E2,-1.001448393E0,-1.922840953E0,1.254911423E-1
1.629823017E2,-6.424550414E-1,-1.177802235E-1,-2.117030621E0
1.630823017E2,2.548258007E-2,3.416874707E-1,-9.163675308E-1
1.631823017E2,3.041516542E-1,-7.553177476E-1,1.263984680E0
1.632823017E2,3.238017559E-1,-2.306633949E0,3.839717865E0
1.633823017E2,1.713052750E0,-5.859056115E-1,-2.389344215E0
1.634823016E2,7.328541279E-1,7.347818613E-1,-3.423687935E0
1.635823019E2,3.482065201E-1,6.265964508E-1,-6.494588852E-1
1.636823019E2,1.451997757E-1,5.045833588E-1,1.470581055E0
1.637823019E2,8.419986963E-1,-9.758437872E-1,3.685818672E0
1.638823019E2,2.614187002E-1,-1.336332083E0,-1.462632179E0
1.639823019E2,-5.327469707E-1,1.674684584E-1,-3.355354309E0
1.640823019E2,2.800134122E-1,3.414184451E-1,-7.410602570E-1
1.641823019E2,2.204229832E-1,-5.470300317E-1,1.191722870E0
1.642823018E2,-7.064092159E-2,-9.571838379E-1,3.336135864E0
1.643819350E2,1.176725745E0,-1.366147995E0,-4.168481827E-1
1.644819350E2,2.614440918E-1,2.893727124E-1,-3.798145771E0
1.645819345E2,1.166532755E0,6.309971213E-1,-1.832534790E0
1.646819345E2,-6.541359425E-2,1.931057572E-1,2.180059433E0
1.647819345E2,1.182835102E-1,9.822058678E-2,2.246691704E0
1.648819330E2,-6.062012911E-1,-2.020877600E0,7.878561020E-1
1.649819330E2,5.882019997E-1,-1.554937959E-1,-2.826350689E0
1.650819321E2,6.154040098E-1,3.465002775E-1,-2.573261738E0
1.651819321E2,5.547434688E-1,-1.219945908E0,2.737489700E0
1.652819321E2,1.973238587E-1,-6.066601276E-1,2.745145798E0
1.653819317E2,1.818336487E0,-5.288267136E-1,-8.671045303E-1
1.654819317E2,8.004105091E-2,9.411081672E-2,-3.445775509E0
1.655819317E2,9.280756116E-1,2.151727080E-1,-1.120464325E0
1.656819317E2,5.377247930E-1,-6.006730199E-1,1.800326347E0
1.657819317E2,1.227352738E0,-1.098927021E0,2.474205971E0
1.658819317E2,5.245331526E-1,-1.366882563E0,-3.572940826E-1
1.659819317E2,-3.031962514E-1,-7.326178253E-2,-2.359215260E0
1.660819317E2,9.146962762E-1,8.949214220E-1,-1.947342396E0
1.661819317E2,1.645575464E-1,-9.567645192E-1,2.689111710E0
1.662819317E2,1.027233362E0,-7.249884605E-1,2.466567993E0
1.663819317E2,1.907062292E0,-1.747430921E0,1.104158401E0
1.664819317E2,2.318577170E-1,5.749542713E-1,-3.882095337E0
1.665819317E2,5.721698999E-1,4.595631659E-1,-1.789163589E0
1.666819316E2,-2.882798910E-1,-3.931803405E-1,1.091524124E0
1.667819316E2,-1.316660643E-1,-7.051200867E-1,2.170805931E0
1.668819316E2,-9.043896198E-2,-1.533590317E0,-2.765064240E-1
1.669819316E2,4.161635339E-1,-3.932011127E-1,-2.588040829E0
1.670819316E2,-4.970992208E-1,7.712249756E-1,-2.680220604E0
1.671819316E2,1.715244502E-1,-1.875986904E-1,1.163148880E0
1.672819316E2,2.916752994E-1,-8.388808966E-1,1.538878441E0
1.673819313E2,1.643540740E0,-2.458045959E0,6.877479553E-1
1.674819313E2,-3.564400673E-1,-1.575497389E-1,-2.685163498E0
1.675819319E2,9.360671043E-1,8.926583529E-1,-3.030191898E0
1.676819319E2,3.088271022E-1,7.640194893E-2,6.756410599E-1
1.677819319E2,2.068153620E-1,-6.733212471E-1,2.982711792E0
1.678819319E2,-9.219297171E-1,-1.797573686E0,5.914115906E-1
1.679819319E2,6.798452139E-2,1.689454317E-1,-4.127259254E0
1.680819319E2,-2.932152748E-1,3.612995893E-2,-2.746769428E0
1.681819319E2,1.052201152E0,4.394657165E-2,7.531118393E-1
1.682819319E2,1.386750042E-1,-1.103570342E0,2.876514435E0
1.683819323E2,1.199443340E0,-2.373611450E0,1.787815094E-1
1.684819323E2,-4.291844368E-2,-1.655788720E-2,-3.407028198E0
1.685819323E2,6.889308691E-1,8.874793053E-1,-2.117734909E0
1.686819323E2,-1.594317555E-1,-8.662009835E-1,1.956586838E0
1.687819323E2,6.752811670E-1,-6.102084517E-1,2.577643394E0
1.688819323E2,-2.827947140E-1,-1.248841286E0,-8.297042847E-1
1.689819971E2,-2.733404636E-1,-2.146835923E-1,-3.600704670E0
1.690819971E2,-1.445604563E-1,2.267019153E-1,-2.662844658E0
1.691819971E2,2.476507425E-1,-9.905226231E-1,1.476328850E0
1.692819971E2,4.835430980E-1,1.189851686E-1,7.522115707E-1
1.693819971E2,5.106559992E-1,-2.123686552E0,8.634681702E-1
1.694819971E2,6.619294882E-1,-1.931454837E-1,-3.618452072E0
1.695819970E2,2.554416656E-1,7.279839516E-1,-2.692754745E0
1.696819971E2,1.122493818E-1,6.655694842E-1,9.763393402E-1
1.697819971E2,-8.934916854E-1,2.300796956E-1,2.838027000E0
1.698819971E2,-1.371820331E0,-2.162833929E0,-4.639720917E-2
1.699819971E2,3.924554884E-1,-5.218688846E-1,-2.880260944E0
1.700819971E2,-9.883121252E-1,-1.542894989E-1,-1.703392029E0
1.701819971E2,-9.364943206E-2,-1.097134113E0,1.229093552E0
1.702819971E2,6.107364893E-1,-3.483998775E-1,1.367836952E0
1.703819971E2,1.053248286E0,-1.923796296E0,2.763661385E0
1.704819971E2,-2.088668644E-1,3.329051435E-1,-2.081868172E0
1.705819962E2,8.473690152E-1,3.429413438E-1,-2.850206852E0
1.706819962E2,-2.291905880E-2,-7.577258945E-1,8.760766983E-1
1.707819962E2,-2.838444114E-1,-6.835169792E-1,2.720366478E0
1.708819962E2,-1.204172134E0,-1.287943363E0,1.031804085E0
1.709819962E2,-3.040956259E-1,-6.634664536E-1,-2.147888184E0
1.710819962E2,-2.951147556E-1,4.515971243E-1,-2.486340046E0
1.711819962E2,-6.402538717E-2,-6.779470444E-1,1.268803596E0
1.712819961E2,-1.564532816E-1,-9.918419123E-1,3.434060097E0
1.713819961E2,-6.512233019E-1,-1.139537096E0,2.035840988E0
1.714819961E2,-6.771534085E-1,-5.285903215E-1,-1.021087646E0
1.715819961E2,7.110892534E-1,1.141731739E0,-3.276672363E0
1.716819961E2,-3.534253538E-1,-3.214811385E-1,1.107162476E0
1.717819961E2,-3.500853479E-1,-1.146033883E0,3.025116920E0
1.718819961E2,-8.662817478E-1,-1.358204603E0,9.086151123E-1
1.719819961E2,8.949741721E-2,-1.385781765E0,-9.426002502E-1
1.720819961E2,5.750989914E-2,4.760312736E-1,-2.809672356E0
1.721819961E2,-2.269638032E-1,-3.642997742E-1,1.302062035E0
1.722819961E2,-1.949980259E-1,-6.436355710E-1,3.547362328E0
1.723819961E2,1.584852040E-1,-2.167918205E0,3.074782372E0
1.724819961E2,6.146425009E-1,-5.772992373E-1,-2.030779362E0
1.725819959E2,4.504632950E-2,6.842489839E-1,-2.519240379E0
1.726819959E2,-1.914972067E-1,3.247518241E-1,4.674444199E-1
1.727819959E2,5.297957063E-1,-1.573574841E-1,2.600951195E0
1.728819959E2,2.288039923E-1,-1.676393867E0,2.210206032E0
1.729819959E2,1.878929138E-1,-1.442600250E0,1.074190140E-1
1.730819959E2,-2.643430829E-1,7.490369678E-1,-3.508255959E0
1.731819959E2,4.760622978E-1,5.782806873E-2,-1.440515518E-1
1.732819959E2,1.431456059E-1,-1.070766211E0,2.088895798E0
1.733819959E2,1.015537500E0,-1.296876669E0,2.249298096E0
1.734819959E2,1.307856441E0,-9.576787949E-1,-1.289035797E0
1.735819961E2,2.474904060E-1,3.213714957E-1,-2.578189850E0
1.736819961E2,3.977480829E-1,1.717594266E-2,-6.894426346E-1
1.737819961E2,3.675181568E-1,-5.192840099E-1,2.851945877E0
1.738819961E2,1.143844724E-1,-2.214702368E-1,1.398876190E0
1.739819961E2,5.449992418E-2,-1.368759155E0,-1.355379105E0
1.740819962E2,-1.928188205E-1,-6.689978838E-1,-2.383024216E0
1.741819962E2,8.626819849E-1,1.141331315E0,-7.889547348E-1
1.742819962E2,1.693774760E-1,-6.059587002E-1,1.353413582E0
1.743816952E2,1.062864780E0,-8.298217654E-1,1.466142654E0
1.744816952E2,1.791367173E0,-1.632831573E0,4.724340439E-1
1.745816949E2,3.563684821E-1,2.471303940E-1,-3.740845680E0
1.746816949E2,1.298664212E0,1.050482631E0,-1.930536270E0
1.747816949E2,4.305214286E-1,4.358781278E-1,2.946460724E0
1.748816949E2,-1.449563503E-1,-7.217004299E-1,2.444510460E0
1.749816949E2,-1.418991089E-1,-1.736304402E0,-1.269074440E0
1.750816949E2,-5.705062151E-1,-3.563618958E-1,-2.475208282E0
1.751816949E2,4.274547398E-1,3.381700516E-1,-2.712273598E0
1.752816949E2,-3.195661306E-2,-8.111775517E-1,1.247009277E0
1.753816949E2,-3.901163936E-1,2.031819224E-1,2.259499550E0
1.754816949E2,-3.613836169E-1,-2.723530531E0,1.098857880E0
1.755816949E2,-3.864533901E-1,-7.063326240E-2,-3.323236942E0
1.756816949E2,5.870110989E-1,7.239680290E-1,-2.370399952E0
1.757816949E2,1.769679785E-1,6.954020262E-2,8.510923386E-1
1.758816949E2,-1.949671507E-1,-5.332155228E-1,3.408819199E0
1.759816949E2,-1.494599819E0,-1.823939323E0,1.159341812E0
1.760816950E2,4.281406403E-1,-8.478566408E-1,-1.500164986E0
1.761816950E2,-1.107928753E-1,6.240741611E-1,-2.962799072E0
1.762816950E2,-2.164431214E-1,-7.497367263E-1,3.381414413E-1
1.763816950E2,-4.909719527E-1,-7.131162286E-1,3.591500282E0
1.764816950E2,-2.014809847E-2,-1.702606082E0,2.092405319E0
1.765816950E2,5.896272063E-1,-9.574764967E-1,-9.563798904E-1
1.766816950E2,9.593962431E-1,1.135974526E0,-2.262785912E0
1.767816950E2,8.585035801E-2,1.795439720E-1,-3.370532990E-1
1.768816950E2,-4.868639708E-1,-8.042157888E-1,2.242976189E0
1.769816950E2,-1.081896901E0,-2.261264563E0,4.319444656E0
1.770816950E2,4.709187150E-2,-8.440425396E-1,-1.976766109E0
1.771816950E2,-5.274205804E-1,2.455755323E-1,-2.977077484E0
1.772816950E2,5.575925708E-1,9.753018618E-3,-1.809177399E-1
1.773816950E2,3.130092621E-1,-6.056286097E-1,2.098890305E0
1.774816950E2,3.963915706E-1,-8.449597359E-1,3.139657021E0
1.775816952E2,1.516429305E0,-1.578473687E0,-2.255725861E-2
1.776816952E2,4.805489779E-1,6.906107664E-1,-3.203756809E0
1.777816952E2,7.309526801E-1,3.142432272E-1,-1.435540199E0
1.778816952E2,-8.751401901E-1,-3.127878308E-1,2.174160957E0
1.779816952E2,8.075665236E-1,-5.318377018E-1,3.093255997E0
1.780816952E2,-8.748030663E-2,-1.372632861E0,-4.485111237E-1
1.781816952E2,7.379084826E-2,-1.306038201E-1,-2.992578030E0
1.782816619E2,3.721098006E-1,4.500518143E-1,-1.883640766E0
1.783816285E2,-6.139783859E-1,-6.915560365E-1,1.893217087E0
1.784815952E2,5.280724764E-1,5.812644958E-2,1.316577911E0
1.785815621E2,1.252495527E0,-1.773234129E0,8.261108398E-1
1.786815288E2,-3.719019890E-2,1.148622558E-1,-2.369148254E0
1.787814954E2,5.627748966E-1,1.223405361E0,-2.528292656E0
1.788814621E2,-2.848941684E-1,-4.670832753E-1,1.569897652E0
1.789814288E2,-6.092290878E-1,2.264181972E-1,2.006826401E0
1.790813953E2,-1.373689651E0,-2.437245846E0,1.017718315E0
1.791813620E2,4.999640286E-1,-4.576235712E-1,-1.773169041E0
1.792813287E2,-6.882667542E-2,6.710541248E-1,-2.993370056E0
1.793812953E2,1.022803187E-1,-4.052106142E-1,3.181266785E-2
1.794812620E2,-5.632603765E-1,-4.347864389E-1,4.285224915E0
1.795812287E2,-5.571175218E-1,-2.674832344E0,3.387104034E0
1.796811953E2,-2.052175403E-1,-1.356976628E-1,-2.197586060E0
1.797811620E2,3.580629826E-1,1.005239964E0,-3.666584015E0
1.798811287E2,-8.210569620E-2,-2.397319376E-1,6.546268463E-1
1.799810953E2,-1.694757342E-1,-1.157567263E0,3.877812386E0
1.800810620E2,-1.026290655E0,-1.728982329E0,3.297030449E0
1.801810287E2,-2.786701322E-1,-5.915518403E-1,-2.303706646E0
1.802809953E2,-3.443751335E-1,3.430981636E-1,-3.407290459E0
1.803809620E2,-1.654103398E-1,-2.278296947E-1,5.265874863E-1
1.804809286E2,3.219500482E-1,-1.028228998E0,1.813214302E0
1.805808953E2,5.489898324E-1,-1.413436890E0,2.680935860E0
1.806808620E2,8.583970070E-1,-1.304866314E0,-3.821182251E-1
1.807808286E2,1.558791995E-1,5.972770452E-1,-3.641775608E0
1.808807954E2,4.058805406E-1,3.988611698E-1,-1.361159325E0
1.809807620E2,-1.312249899E-1,-8.210414648E-2,2.039216042E0
1.810807287E2,1.153420568E0,-7.548975945E-1,2.588064194E0
1.811805635E2,4.753240049E-1,-8.359917402E-1,-9.960088730E-1
1.812805635E2,-1.057568789E0,-2.815977931E-1,-2.493851185E0
1.813805635E2,3.968220651E-1,1.333882213E-1,-2.189721107E0
1.814805635E2,-5.045773387E-1,-8.249127865E-1,1.614058495E0
1.815805633E2,-7.306453586E-2,-4.241526127E-1,2.419880867E0
1.816805633E2,1.906401873E0,-1.888274431E0,5.210390091E-1
1.817805633E2,1.034785509E-1,-1.390365064E-1,-2.816339970E0
1.818805633E2,9.803823233E-1,1.049728394E0,-3.057407856E0
1.819805633E2,-1.667963862E-1,-1.494207382E-1,1.194302559E0
1.820805633E2,8.379030228E-2,-5.260629654E-1,3.356101990E0
1.821805632E2,-7.340945005E-1,-1.278329968E0,4.072465897E-1
1.822805632E2,-3.046662211E-1,-1.179795027E0,-1.773158550E0
1.823805633E2,-4.810305834E-1,3.028309941E-1,-2.690541744E0
1.824805633E2,-2.494496405E-1,-1.823194325E-1,1.014989853E0
1.825805633E2,-2.584499121E-1,-4.456113577E-1,3.596192360E0
1.826805633E2,-3.050049841E-1,-2.447733641E0,4.239624023E0
1.827805633E2,3.713860214E-1,-7.831062078E-1,-1.802691936E0
1.828805633E2,5.041161180E-1,6.395356059E-1,-3.444115162E0
1.829805633E2,3.606993556E-1,-2.867147923E-1,-5.655193329E-2
1.830805633E2,1.595179439E-1,-1.669595838E-1,2.694502831E0
1.831805633E2,7.378377914E-1,-6.967689395E-1,2.551656723E0
1.832805633E2,9.050285816E-1,-5.467150807E-1,-1.403988838E0
1.833804186E2,-8.971600533E-1,-1.398742199E-1,-2.908645630E0
1.834804187E2,-2.564513683E-1,-1.273682117E-1,-1.397031784E0
1.835804184E2,-3.480069637E-1,-1.214157343E0,1.999925613E0
1.836804184E2,9.804059267E-1,-1.027923346E0,2.033619881E0
1.837804184E2,2.243898392E0,-1.584818840E0,1.594320297E0
1.838804184E2,7.406252623E-2,2.996630967E-1,-3.497470856E0
1.839804184E2,7.822010517E-1,3.982428312E-1,-2.520404816E0
1.840804184E2,1.768628359E-1,3.306611776E-1,1.032426834E0
1.841804184E2,3.736072779E-1,-3.040958047E-1,2.471876144E0
1.842804184E2,-1.483757854E0,-1.743821383E0,-2.153415680E-1
1.843804183E2,-6.505144835E-1,-1.079081297E0,-8.493442535E-1
1.844804183E2,-2.014806867E-1,4.253764749E-1,-2.763206005E0
1.845803108E2,-4.389542341E-1,-3.715495467E-1,-1.759805679E-1
1.846803108E2,-5.051802993E-1,-5.453840494E-1,3.798892021E0
1.847803108E2,4.456244409E-1,-1.828029633E0,3.009120941E0
1.848803109E2,1.326918602E-3,-1.492989302E0,-4.862155914E-1
1.849803109E2,2.947258949E-2,1.148325205E-1,-2.854443550E0
1.850803109E2,3.335061371E-1,3.150429726E-1,-1.279293060E0
1.851803110E2,4.502142668E-1,-3.878961802E-1,1.147365570E0
1.852803110E2,7.883840799E-1,-2.068923116E-1,2.121247292E0
1.853803109E2,-7.388699055E-2,-1.211291313E0,-2.685594559E-1
1.854803109E2,-2.333251238E-1,-4.140335023E-1,-2.697489262E0
1.855803116E2,8.587110043E-2,1.339059621E-1,-1.600970268E0
1.856803118E2,-8.112752438E-1,-2.620521188E-2,5.404872894E-1
1.857803118E2,-5.756956339E-1,1.188551784E-1,2.825702667E0
1.858803119E2,-5.840802193E-2,-1.858485341E0,1.136053085E0
1.859803119E2,3.170627356E-1,-1.187802911E0,-7.960472107E-1
1.860803119E2,3.233788013E-1,4.082395732E-1,-2.776381493E0
1.861803119E2,4.036317468E-1,-4.017548263E-1,-3.827896118E-1
1.862803119E2,2.447426319E-2,-6.856575608E-1,2.437845230E0
1.863803119E2,-3.654242754E-1,-9.529207945E-1,1.907694817E0
1.864803118E2,-4.404454231E-1,-1.171838641E0,-1.681852341E-1
1.865803118E2,-2.758786678E-1,-3.474125266E-1,-3.321021557E0
1.866803118E2,1.346976757E-1,2.762598693E-1,-1.461239815E0
1.867803118E2,-3.704283834E-1,-3.655817509E-1,5.814456940E-1
1.868803119E2,-5.683273077E-2,-2.722991407E-1,1.461894035E0
1.869803119E2,-2.623982430E-1,-2.510911942E0,2.684141159E0
1.870803119E2,9.566426277E-2,-2.230996370E0,2.188835144E-1
1.871803119E2,1.490393281E-1,-4.442842603E-1,-2.287277222E0
1.872803119E2,-1.074416041E-1,1.148428023E-1,-1.164896965E0
1.873803119E2,6.253372431E-1,-3.497767448E-1,6.770057678E-1
1.874803119E2,-4.160096645E-1,-1.396253824E0,2.824884415E0
1.875803119E2,-5.152630210E-1,-2.136319160E0,2.559821129E0
1.876803119E2,1.968851686E-1,-1.764898062E0,6.110763550E-2
1.877803119E2,-2.203511000E-1,-8.933251500E-1,-1.494308472E0
1.878803118E2,-3.712773323E-2,-4.858010709E-1,3.487300873E-2
1.879803118E2,2.297993898E-1,-7.930898666E-1,-1.488828659E-1
1.880803118E2,4.058801830E-1,-1.062307596E0,4.172630310E-1
1.881803118E2,-2.314886451E-1,-2.353401899E0,2.126333237E0
1.882803118E2,5.542606115E-1,-6.324086785E-1,-1.426023483E0
1.883803118E2,-5.643036366E-1,-1.373019934E0,6.398973465E-1
1.884803118E2,1.912716627E-1,-8.506066799E-1,-3.223228455E-2
1.885803112E2,1.659426689E-1,-9.111386538E-1,9.143629074E-1
1.886803109E2,6.299209595E-1,8.948251605E-3,-9.359188080E-1
1.887803109E2,-7.236337662E-2,-3.559108078E-1,3.958139420E-1
1.888803109E2,2.030071020E-1,2.233311906E-2,3.587017059E-1
1.889803109E2,2.835135758E-1,1.177293360E-1,-1.321487427E-1
1.890803109E2,-3.177780509E-1,-3.029475808E-1,4.254455566E-1
1.891803109E2,-9.892582893E-2,3.137043417E-1,-1.218690872E-1
1.892803109E2,8.481806517E-2,-1.132738814E-1,2.878274918E-1
1.893803109E2,-2.426373959E-1,-4.404253513E-2,3.186874390E-1
1.894803109E2,4.633355141E-2,-3.423219547E-2,-1.472578049E-1
1.895803111E2,-5.048328638E-2,-1.185034662E-1,8.570861816E-2
1.896803111E2,-1.215040684E-3,-5.037393048E-2,2.394733429E-1
1.897803111E2,2.581161261E-2,-2.549153268E-1,-7.506465912E-2
1.898803110E2,1.473254561E-1,1.185538322E-1,6.817626953E-2
1.899803110E2,8.240592480E-2,1.086089015E-2,-9.892463684E-3
1.900803110E2,-2.942085266E-3,-5.751781166E-2,1.016902924E-2
1.901803110E2,-7.443118095E-2,4.389390349E-2,8.653831482E-2
1.902803110E2,5.993390083E-2,-5.443979427E-2,1.619596481E-1
1.903803110E2,7.480561733E-3,-7.868736982E-3,-1.526165009E-2
1.904803112E2,-7.683712244E-2,3.298027813E-2,6.807518005E-2
1.905803111E2,6.139272451E-2,-4.794638604E-2,-3.714752197E-2
1.906803111E2,1.157614589E-1,-2.181535959E-2,1.094093323E-1
1.907803111E2,1.896512508E-2,-8.457243443E-3,1.585102081E-1
1.908803111E2,9.123474360E-2,-7.532477379E-3,-8.247184753E-2
1.909803111E2,-2.296197414E-2,4.155214131E-2,2.244062424E-1
1.910803111E2,1.679340005E-1,3.231646121E-2,-3.737640381E-2
1.911803111E2,6.517988443E-2,-1.078439951E-1,3.425312042E-2
1.912803111E2,9.701263905E-2,6.805238873E-2,-2.656164169E-1
1.913803111E2,-1.706889868E-1,-3.686472774E-1,2.846784592E-1
1.914803111E2,9.358614683E-2,-9.565846622E-2,-3.354549408E-2
1.915803111E2,6.341141462E-2,-2.864290774E-2,3.166255951E-1
1.916803111E2,9.110742807E-2,4.817191511E-3,-4.895019531E-2
1.917803111E2,4.217886925E-2,-2.531699464E-2,8.213806152E-2
1.918803111E2,-1.329421997E-1,-1.343711317E-1,4.414844513E-2
1.919803111E2,2.115345895E-1,-6.727350503E-2,8.624458313E-2
1.920803113E2,4.142355919E-2,-1.681210250E-1,3.204317093E-1
1.921803113E2,-1.379891038E-1,-1.665050685E-1,-1.332035065E-1
1.922803113E2,4.206913710E-2,-1.458453387E-2,-8.706760406E-2
1.923803113E2,1.170007586E-1,-7.280161977E-2,4.127941132E-1
1.924803115E2,2.607622147E-1,-2.653800324E-2,-9.783363342E-2
1.925803113E2,1.167013049E-1,-6.321492791E-2,-1.273736954E-1
1.926803113E2,-3.256011009E-2,3.488728032E-2,1.214809418E-1
1.927803113E2,-1.275502443E-1,-1.564641297E-1,-1.288070679E-1
1.928803113E2,2.619719505E-2,1.315085962E-2,-1.260814667E-1
1.929803113E2,7.985645533E-2,2.459750324E-2,1.086664200E-1
1.930803113E2,-1.779610515E-1,2.651199996E-1,-1.108570099E-1
1.931803113E2,-1.113954544E0,3.561048508E-1,-1.236219406E-1
1.932803113E2,-2.253573418E0,3.062995374E-1,-7.070016861E-1
1.933803113E2,-3.491517782E0,-6.309557557E-1,-2.192592621E-1
1.934803111E2,-3.155499458E0,-1.837158203E0,8.431758881E-1
1.935803111E2,-7.893504500E-1,-2.198145628E0,9.233093262E-2
1.936803111E2,7.879337668E-1,-1.839958072E0,-6.969785690E-1
1.937803111E2,1.372115135E0,-1.048785567E0,1.332178116E-1
1.938803111E2,1.521808267E0,-1.188461423E0,3.295068741E-1
1.939803111E2,1.063983679E0,-1.535859704E0,1.402528763E0
1.940803111E2,1.146479964E0,6.885290146E-2,-1.259538651E0
1.941803111E2,7.680124640E-1,5.221510530E-1,7.012681961E-1
1.942803111E2,4.737743139E-1,1.433507442E0,-1.404106140E0
1.943803111E2,1.760691404E-2,1.248271227E0,1.397752762E-1
1.944803111E2,1.148488522E-1,1.355668068E0,1.117889404E0
1.945800962E2,-8.671345711E-1,8.607926369E-1,1.967098236E0
1.946800962E2,-1.948739529E0,-1.147281647E0,3.195363045E0
1.947800962E2,-1.360265136E0,-8.190268278E-2,-1.247382164E0
1.948800962E2,-4.018294215E-1,6.684350967E-1,-2.375878811E0
1.949800962E2,6.172483414E-2,7.582923174E-1,-7.222356796E-1
1.950800960E2,2.462210655E-1,-5.088889003E-1,1.519642830E0
1.951800960E2,3.373460472E-1,-7.938345671E-1,1.925554276E0
1.952800960E2,4.707255065E-1,-2.333661795E0,1.662454605E0
1.953800960E2,-5.657480657E-2,2.844103277E-1,-2.788335323E0
1.954800958E2,1.850704402E-1,8.672714233E-1,-2.515891552E0
1.955800960E2,6.073344499E-2,4.735265076E-1,-7.308702469E-1
1.956800960E2,-4.980060458E-1,-8.299309611E-1,3.000581741E0
1.957800960E2,-9.043154120E-1,-2.224381924E0,3.816763878E0
1.958800960E2,1.137178183E0,-4.111844301E-1,-4.853897095E-1
1.959800627E2,-1.482447982E-1,-1.597106755E-1,-2.516124725E0
1.960800293E2,-3.240563273E-1,5.201629996E-1,-2.132530689E0
1.961799960E2,-2.277035415E-1,-9.034963846E-1,1.157983780E0
1.962799626E2,1.026745558E0,-1.223646045E0,2.027652740E0
1.963799293E2,5.119709969E-1,-1.292106748E0,1.915599823E0
1.964798960E2,-3.093454242E-1,4.862993956E-2,-4.168119907E0
1.965798627E2,5.720140934E-1,2.429726720E-1,-2.782004356E0
1.966798294E2,4.572653472E-1,1.927737594E-1,7.561664581E-1
1.967797960E2,-1.469003201E0,6.973610520E-1,2.754561424E0
1.968797627E2,-1.832718372E0,-1.700197458E0,8.167076111E-2
1.969797293E2,4.593921304E-1,-4.394768775E-1,-2.064455986E0
1.970796960E2,-9.369025230E-1,9.588703513E-1,-1.377595901E0
1.971796627E2,-1.244742572E-1,-4.189921021E-1,-1.427040100E-1
1.972796293E2,-6.879584789E-1,-4.208450913E-1,1.948283195E0
1.973795960E2,-8.537080884E-2,-3.293908596E0,2.531261444E0
1.974795627E2,-1.068086982E0,-7.021918893E-1,-5.886526108E-1
1.975795294E2,2.172261775E-1,8.511556387E-1,-2.063190937E0
1.976794961E2,3.942595124E-1,4.061107635E-1,-1.347165108E0
1.977794627E2,-8.515704870E-1,-1.034805059E0,3.549930573E0
1.978794294E2,-1.234315276E0,-1.477768660E0,3.297098160E0
1.979793961E2,-1.192426831E-1,-1.849540114E0,-4.801397324E-1
1.980793627E2,-2.588379085E-1,5.547462702E-1,-3.285872459E0
1.981793294E2,-1.490129083E-1,-9.285068512E-2,-1.236246109E0
1.982792960E2,-2.674834132E-1,-5.513122678E-1,2.632867813E0
1.983792627E2,6.671780348E-1,-2.344677925E0,3.263046265E0
1.984792294E2,1.154723883E0,-1.211148500E0,1.998367310E-1
1.985791961E2,-5.622110963E-1,-1.915279627E-1,-1.863534451E0
1.986791628E2,-6.391352415E-2,3.586122990E-1,-2.671680450E0
1.987791294E2,4.332419634E-1,1.711071730E-1,-8.230209351E-4
1.988790961E2,-1.844417751E-1,-4.648276567E-1,1.721101761E0
1.989790961E2,-1.167754173E0,-1.913467765E0,1.525376320E0
1.990790961E2,-4.075314701E-1,-2.926801443E-1,-2.496067524E0
1.991790961E2,-4.954688549E-1,2.129923105E-1,-1.892203331E0
1.992790962E2,-2.287338674E-1,-4.334735870E-1,6.121702194E-1
1.993790962E2,-4.807803035E-1,2.094019651E-1,2.695353508E0
1.994790962E2,-7.505790889E-2,-2.035066605E0,1.549438477E0
1.995790962E2,-4.290044308E-1,-1.048827529E0,-3.728351593E-1
1.996790962E2,-6.499299407E-2,-3.970122337E-2,-2.242750168E0
1.997790962E2,5.868555307E-1,4.663948417E-1,-1.493799210E0
1.998790962E2,-3.317588866E-1,-6.982214451E-1,2.666216850E0
1.999790962E2,-7.937557697E-1,-1.695494771E0,3.736812592E0
2.000790962E2,4.625005722E-1,-6.094518900E-1,-4.086780548E-1
2.001790962E2,-4.421997666E-1,3.123998642E-1,-3.182155609E0
2.002790964E2,6.767969579E-2,-2.776280046E-1,-1.119238853E0
2.003790964E2,-6.543563604E-1,-7.210602760E-1,1.586349487E0
2.004790963E2,1.079824448E0,-1.190493703E0,3.267079353E0
2.005790963E2,5.841751695E-1,-1.316590071E0,5.046520233E-1
2.006790963E2,-4.688419104E-1,2.547580004E-1,-2.821541786E0
2.007790963E2,3.681977391E-1,1.136202216E-1,-1.761677742E0
2.008790963E2,2.426234335E-1,4.465628862E-1,1.211806297E0
2.009790963E2,-1.131199002E-1,-5.574941635E-3,2.438449860E0
2.010790963E2,-7.780206203E-1,-1.991788864E0,8.619775772E-1
2.011790964E2,-6.496119499E-1,-5.184512138E-1,-2.627967834E0
